Folder: Thesis_XRD/Data/11371

File: 2.0deg-2.0deg-rsm-3h10m_11371-annealed_224.dat
# filename: /home/lepecvd/lepecvd/11371/xray/2.0deg-2.0deg-rsm-3h10m_11371-E4_224.xrdml
# reflection: ('2', '2', '4')
# type: Area measurement
# x-axis: Omega_2Theta
# y-axis: Omega
#
# Omega	2Theta	Phi  	Chi   	X    	Y    	Z    	q_para	q_perp	Intensity
# [deg]	[deg] 	[deg]	[deg] 	[mm] 	[mm] 	[mm] 	[nm-1]	[nm-1]	[counts/s]
6.4777	85.0532	-0.92	0.32	0.00	17.53	7.303	5.16396	7.09483	2.0
6.4977	85.0932	-0.92	0.32	0.00	17.53	7.303	5.16592	7.09753	2.0
6.5177	85.1332	-0.92	0.32	0.00	17.53	7.303	5.16788	7.10023	0.0
6.5377	85.1732	-0.92	0.32	0.00	17.53	7.303	5.16985	7.10293	0.0
6.5577	85.2132	-0.92	0.32	0.00	17.53	7.303	5.17181	7.10563	4.0
6.5777	85.2532	-0.92	0.32	0.00	17.53	7.303	5.17377	7.10832	2.0
6.5977	85.2932	-0.92	0.32	0.00	17.53	7.303	5.17574	7.11102	0.0
6.6177	85.3332	-0.92	0.32	0.00	17.53	7.303	5.17770	7.11371	0.0
6.6377	85.3732	-0.92	0.32	0.00	17.53	7.303	5.17966	7.11641	2.0
6.6577	85.4132	-0.92	0.32	0.00	17.53	7.303	5.18162	7.11910	4.0
6.6777	85.4532	-0.92	0.32	0.00	17.53	7.303	5.18358	7.12179	2.0
6.6977	85.4932	-0.92	0.32	0.00	17.53	7.303	5.18554	7.12448	0.0
6.7177	85.5332	-0.92	0.32	0.00	17.53	7.303	5.18749	7.12717	0.0
6.7377	85.5732	-0.92	0.32	0.00	17.53	7.303	5.18945	7.12986	2.0
6.7577	85.6132	-0.92	0.32	0.00	17.53	7.303	5.19141	7.13255	4.0
6.7777	85.6532	-0.92	0.32	0.00	17.53	7.303	5.19336	7.13524	0.0
6.7977	85.6932	-0.92	0.32	0.00	17.53	7.303	5.19532	7.13793	6.0
6.8177	85.7332	-0.92	0.32	0.00	17.53	7.303	5.19727	7.14061	4.0
6.8377	85.7732	-0.92	0.32	0.00	17.53	7.303	5.19923	7.14330	2.0
6.8577	85.8132	-0.92	0.32	0.00	17.53	7.303	5.20118	7.14598	0.0
6.8777	85.8532	-0.92	0.32	0.00	17.53	7.303	5.20314	7.14866	0.0
6.8977	85.8932	-0.92	0.32	0.00	17.53	7.303	5.20509	7.15135	0.0
6.9177	85.9332	-0.92	0.32	0.00	17.53	7.303	5.20704	7.15403	2.0
6.9377	85.9732	-0.92	0.32	0.00	17.53	7.303	5.20899	7.15671	0.0
6.9577	86.0132	-0.92	0.32	0.00	17.53	7.303	5.21094	7.15939	0.0
6.9777	86.0532	-0.92	0.32	0.00	17.53	7.303	5.21289	7.16207	0.0
6.9977	86.0932	-0.92	0.32	0.00	17.53	7.303	5.21484	7.16474	4.0
7.0177	86.1332	-0.92	0.32	0.00	17.53	7.303	5.21679	7.16742	0.0
7.0377	86.1732	-0.92	0.32	0.00	17.53	7.303	5.21874	7.17010	0.0
7.0577	86.2132	-0.92	0.32	0.00	17.53	7.303	5.22068	7.17277	2.0
7.0777	86.2532	-0.92	0.32	0.00	17.53	7.303	5.22263	7.17545	0.0
7.0977	86.2932	-0.92	0.32	0.00	17.53	7.303	5.22458	7.17812	2.0
7.1177	86.3332	-0.92	0.32	0.00	17.53	7.303	5.22652	7.18079	0.0
7.1377	86.3732	-0.92	0.32	0.00	17.53	7.303	5.22847	7.18347	0.0
7.1577	86.4132	-0.92	0.32	0.00	17.53	7.303	5.23041	7.18614	4.0
7.1777	86.4532	-0.92	0.32	0.00	17.53	7.303	5.23235	7.18881	0.0
7.1977	86.4932	-0.92	0.32	0.00	17.53	7.303	5.23430	7.19148	0.0
7.2177	86.5332	-0.92	0.32	0.00	17.53	7.303	5.23624	7.19415	2.0
7.2377	86.5732	-0.92	0.32	0.00	17.53	7.303	5.23818	7.19681	6.0
7.2577	86.6132	-0.92	0.32	0.00	17.53	7.303	5.24012	7.19948	0.0
7.2777	86.6532	-0.92	0.32	0.00	17.53	7.303	5.24206	7.20215	0.0
7.2977	86.6932	-0.92	0.32	0.00	17.53	7.303	5.24400	7.20481	0.0
7.3177	86.7332	-0.92	0.32	0.00	17.53	7.303	5.24594	7.20747	4.0
7.3377	86.7732	-0.92	0.32	0.00	17.53	7.303	5.24788	7.21014	4.0
7.3577	86.8132	-0.92	0.32	0.00	17.53	7.303	5.24982	7.21280	0.0
7.3777	86.8532	-0.92	0.32	0.00	17.53	7.303	5.25175	7.21546	0.0
7.3977	86.8932	-0.92	0.32	0.00	17.53	7.303	5.25369	7.21812	2.0
7.4177	86.9332	-0.92	0.32	0.00	17.53	7.303	5.25563	7.22078	0.0
7.4377	86.9732	-0.92	0.32	0.00	17.53	7.303	5.25756	7.22344	4.0
7.4577	87.0132	-0.92	0.32	0.00	17.53	7.303	5.25950	7.22610	0.0
7.4777	87.0532	-0.92	0.32	0.00	17.53	7.303	5.26143	7.22875	0.0
7.4977	87.0932	-0.92	0.32	0.00	17.53	7.303	5.26336	7.23141	0.0
7.5177	87.1332	-0.92	0.32	0.00	17.53	7.303	5.26530	7.23407	0.0
7.5377	87.1732	-0.92	0.32	0.00	17.53	7.303	5.26723	7.23672	0.0
7.5577	87.2132	-0.92	0.32	0.00	17.53	7.303	5.26916	7.23937	2.0
7.5777	87.2532	-0.92	0.32	0.00	17.53	7.303	5.27109	7.24203	0.0
7.5977	87.2932	-0.92	0.32	0.00	17.53	7.303	5.27302	7.24468	0.0
7.6177	87.3332	-0.92	0.32	0.00	17.53	7.303	5.27495	7.24733	4.0
7.6377	87.3732	-0.92	0.32	0.00	17.53	7.303	5.27688	7.24998	2.0
7.6577	87.4132	-0.92	0.32	0.00	17.53	7.303	5.27881	7.25263	4.0
7.6777	87.4532	-0.92	0.32	0.00	17.53	7.303	5.28073	7.25528	4.0
7.6977	87.4932	-0.92	0.32	0.00	17.53	7.303	5.28266	7.25792	2.0
7.7177	87.5332	-0.92	0.32	0.00	17.53	7.303	5.28459	7.26057	0.0
7.7377	87.5732	-0.92	0.32	0.00	17.53	7.303	5.28651	7.26322	2.0
7.7577	87.6132	-0.92	0.32	0.00	17.53	7.303	5.28844	7.26586	2.0
7.7777	87.6532	-0.92	0.32	0.00	17.53	7.303	5.29036	7.26850	4.0
7.7977	87.6932	-0.92	0.32	0.00	17.53	7.303	5.29228	7.27115	0.0
7.8177	87.7332	-0.92	0.32	0.00	17.53	7.303	5.29421	7.27379	2.0
7.8377	87.7732	-0.92	0.32	0.00	17.53	7.303	5.29613	7.27643	0.0
7.8577	87.8132	-0.92	0.32	0.00	17.53	7.303	5.29805	7.27907	2.0
7.8777	87.8532	-0.92	0.32	0.00	17.53	7.303	5.29997	7.28171	2.0
7.8977	87.8932	-0.92	0.32	0.00	17.53	7.303	5.30189	7.28435	0.0
7.9177	87.9332	-0.92	0.32	0.00	17.53	7.303	5.30381	7.28699	0.0
7.9377	87.9732	-0.92	0.32	0.00	17.53	7.303	5.30573	7.28962	2.0
7.9577	88.0132	-0.92	0.32	0.00	17.53	7.303	5.30765	7.29226	0.0
7.9777	88.0532	-0.92	0.32	0.00	17.53	7.303	5.30957	7.29489	0.0
7.9977	88.0932	-0.92	0.32	0.00	17.53	7.303	5.31148	7.29753	0.0
8.0177	88.1332	-0.92	0.32	0.00	17.53	7.303	5.31340	7.30016	2.0
8.0377	88.1732	-0.92	0.32	0.00	17.53	7.303	5.31532	7.30279	2.0
8.0577	88.2132	-0.92	0.32	0.00	17.53	7.303	5.31723	7.30542	0.0
8.0777	88.2532	-0.92	0.32	0.00	17.53	7.303	5.31915	7.30805	0.0
8.0977	88.2932	-0.92	0.32	0.00	17.53	7.303	5.32106	7.31068	0.0
8.1177	88.3332	-0.92	0.32	0.00	17.53	7.303	5.32297	7.31331	2.0
8.1377	88.3732	-0.92	0.32	0.00	17.53	7.303	5.32489	7.31594	0.0
8.1577	88.4132	-0.92	0.32	0.00	17.53	7.303	5.32680	7.31857	0.0
8.1777	88.4532	-0.92	0.32	0.00	17.53	7.303	5.32871	7.32119	0.0
8.1977	88.4932	-0.92	0.32	0.00	17.53	7.303	5.33062	7.32382	0.0
8.2177	88.5332	-0.92	0.32	0.00	17.53	7.303	5.33253	7.32644	2.0
8.2377	88.5732	-0.92	0.32	0.00	17.53	7.303	5.33444	7.32906	0.0
8.2577	88.6132	-0.92	0.32	0.00	17.53	7.303	5.33635	7.33169	4.0
8.2777	88.6532	-0.92	0.32	0.00	17.53	7.303	5.33826	7.33431	0.0
8.2977	88.6932	-0.92	0.32	0.00	17.53	7.303	5.34016	7.33693	0.0
8.3177	88.7332	-0.92	0.32	0.00	17.53	7.303	5.34207	7.33955	0.0
8.3377	88.7732	-0.92	0.32	0.00	17.53	7.303	5.34398	7.34217	0.0
8.3577	88.8132	-0.92	0.32	0.00	17.53	7.303	5.34588	7.34479	2.0
8.3777	88.8532	-0.92	0.32	0.00	17.53	7.303	5.34779	7.34740	0.0
8.3977	88.8932	-0.92	0.32	0.00	17.53	7.303	5.34969	7.35002	0.0
8.4177	88.9332	-0.92	0.32	0.00	17.53	7.303	5.35159	7.35263	0.0
8.4377	88.9732	-0.92	0.32	0.00	17.53	7.303	5.35350	7.35525	4.0
8.4577	89.0132	-0.92	0.32	0.00	17.53	7.303	5.35540	7.35786	2.0

6.4977	85.0532	-0.92	0.32	0.00	17.53	7.303	5.16148	7.09664	0.0
6.5177	85.0932	-0.92	0.32	0.00	17.53	7.303	5.16344	7.09934	0.0
6.5377	85.1332	-0.92	0.32	0.00	17.53	7.303	5.16541	7.10204	0.0
6.5577	85.1732	-0.92	0.32	0.00	17.53	7.303	5.16737	7.10473	0.0
6.5777	85.2132	-0.92	0.32	0.00	17.53	7.303	5.16933	7.10743	2.0
6.5977	85.2532	-0.92	0.32	0.00	17.53	7.303	5.17129	7.11013	0.0
6.6177	85.2932	-0.92	0.32	0.00	17.53	7.303	5.17325	7.11283	2.0
6.6377	85.3332	-0.92	0.32	0.00	17.53	7.303	5.17521	7.11552	4.0
6.6577	85.3732	-0.92	0.32	0.00	17.53	7.303	5.17717	7.11821	0.0
6.6777	85.4132	-0.92	0.32	0.00	17.53	7.303	5.17913	7.12091	2.0
6.6977	85.4532	-0.92	0.32	0.00	17.53	7.303	5.18109	7.12360	0.0
6.7177	85.4932	-0.92	0.32	0.00	17.53	7.303	5.18305	7.12629	2.0
6.7377	85.5332	-0.92	0.32	0.00	17.53	7.303	5.18501	7.12898	0.0
6.7577	85.5732	-0.92	0.32	0.00	17.53	7.303	5.18696	7.13167	0.0
6.7777	85.6132	-0.92	0.32	0.00	17.53	7.303	5.18892	7.13436	2.0
6.7977	85.6532	-0.92	0.32	0.00	17.53	7.303	5.19087	7.13705	0.0
6.8177	85.6932	-0.92	0.32	0.00	17.53	7.303	5.19283	7.13974	0.0
6.8377	85.7332	-0.92	0.32	0.00	17.53	7.303	5.19478	7.14242	2.0
6.8577	85.7732	-0.92	0.32	0.00	17.53	7.303	5.19674	7.14511	2.0
6.8777	85.8132	-0.92	0.32	0.00	17.53	7.303	5.19869	7.14780	0.0
6.8977	85.8532	-0.92	0.32	0.00	17.53	7.303	5.20064	7.15048	0.0
6.9177	85.8932	-0.92	0.32	0.00	17.53	7.303	5.20259	7.15316	0.0
6.9377	85.9332	-0.92	0.32	0.00	17.53	7.303	5.20454	7.15584	2.0
6.9577	85.9732	-0.92	0.32	0.00	17.53	7.303	5.20649	7.15853	4.0
6.9777	86.0132	-0.92	0.32	0.00	17.53	7.303	5.20844	7.16121	0.0
6.9977	86.0532	-0.92	0.32	0.00	17.53	7.303	5.21039	7.16389	2.0
7.0177	86.0932	-0.92	0.32	0.00	17.53	7.303	5.21234	7.16656	2.0
7.0377	86.1332	-0.92	0.32	0.00	17.53	7.303	5.21429	7.16924	4.0
7.0577	86.1732	-0.92	0.32	0.00	17.53	7.303	5.21623	7.17192	0.0
7.0777	86.2132	-0.92	0.32	0.00	17.53	7.303	5.21818	7.17460	2.0
7.0977	86.2532	-0.92	0.32	0.00	17.53	7.303	5.22013	7.17727	4.0
7.1177	86.2932	-0.92	0.32	0.00	17.53	7.303	5.22207	7.17995	2.0
7.1377	86.3332	-0.92	0.32	0.00	17.53	7.303	5.22402	7.18262	4.0
7.1577	86.3732	-0.92	0.32	0.00	17.53	7.303	5.22596	7.18529	0.0
7.1777	86.4132	-0.92	0.32	0.00	17.53	7.303	5.22790	7.18796	2.0
7.1977	86.4532	-0.92	0.32	0.00	17.53	7.303	5.22984	7.19063	4.0
7.2177	86.4932	-0.92	0.32	0.00	17.53	7.303	5.23179	7.19330	2.0
7.2377	86.5332	-0.92	0.32	0.00	17.53	7.303	5.23373	7.19597	6.0
7.2577	86.5732	-0.92	0.32	0.00	17.53	7.303	5.23567	7.19864	6.0
7.2777	86.6132	-0.92	0.32	0.00	17.53	7.303	5.23761	7.20131	2.0
7.2977	86.6532	-0.92	0.32	0.00	17.53	7.303	5.23955	7.20397	2.0
7.3177	86.6932	-0.92	0.32	0.00	17.53	7.303	5.24149	7.20664	2.0
7.3377	86.7332	-0.92	0.32	0.00	17.53	7.303	5.24342	7.20931	2.0
7.3577	86.7732	-0.92	0.32	0.00	17.53	7.303	5.24536	7.21197	0.0
7.3777	86.8132	-0.92	0.32	0.00	17.53	7.303	5.24730	7.21463	0.0
7.3977	86.8532	-0.92	0.32	0.00	17.53	7.303	5.24923	7.21729	0.0
7.4177	86.8932	-0.92	0.32	0.00	17.53	7.303	5.25117	7.21996	0.0
7.4377	86.9332	-0.92	0.32	0.00	17.53	7.303	5.25311	7.22262	0.0
7.4577	86.9732	-0.92	0.32	0.00	17.53	7.303	5.25504	7.22527	4.0
7.4777	87.0132	-0.92	0.32	0.00	17.53	7.303	5.25697	7.22793	0.0
7.4977	87.0532	-0.92	0.32	0.00	17.53	7.303	5.25891	7.23059	0.0
7.5177	87.0932	-0.92	0.32	0.00	17.53	7.303	5.26084	7.23325	0.0
7.5377	87.1332	-0.92	0.32	0.00	17.53	7.303	5.26277	7.23590	2.0
7.5577	87.1732	-0.92	0.32	0.00	17.53	7.303	5.26470	7.23856	0.0
7.5777	87.2132	-0.92	0.32	0.00	17.53	7.303	5.26663	7.24121	2.0
7.5977	87.2532	-0.92	0.32	0.00	17.53	7.303	5.26856	7.24387	0.0
7.6177	87.2932	-0.92	0.32	0.00	17.53	7.303	5.27049	7.24652	0.0
7.6377	87.3332	-0.92	0.32	0.00	17.53	7.303	5.27242	7.24917	0.0
7.6577	87.3732	-0.92	0.32	0.00	17.53	7.303	5.27435	7.25182	0.0
7.6777	87.4132	-0.92	0.32	0.00	17.53	7.303	5.27627	7.25447	0.0
7.6977	87.4532	-0.92	0.32	0.00	17.53	7.303	5.27820	7.25712	0.0
7.7177	87.4932	-0.92	0.32	0.00	17.53	7.303	5.28013	7.25977	0.0
7.7377	87.5332	-0.92	0.32	0.00	17.53	7.303	5.28205	7.26241	4.0
7.7577	87.5732	-0.92	0.32	0.00	17.53	7.303	5.28398	7.26506	0.0
7.7777	87.6132	-0.92	0.32	0.00	17.53	7.303	5.28590	7.26771	0.0
7.7977	87.6532	-0.92	0.32	0.00	17.53	7.303	5.28782	7.27035	0.0
7.8177	87.6932	-0.92	0.32	0.00	17.53	7.303	5.28975	7.27299	0.0
7.8377	87.7332	-0.92	0.32	0.00	17.53	7.303	5.29167	7.27564	0.0
7.8577	87.7732	-0.92	0.32	0.00	17.53	7.303	5.29359	7.27828	0.0
7.8777	87.8132	-0.92	0.32	0.00	17.53	7.303	5.29551	7.28092	4.0
7.8977	87.8532	-0.92	0.32	0.00	17.53	7.303	5.29743	7.28356	2.0
7.9177	87.8932	-0.92	0.32	0.00	17.53	7.303	5.29935	7.28620	4.0
7.9377	87.9332	-0.92	0.32	0.00	17.53	7.303	5.30127	7.28884	2.0
7.9577	87.9732	-0.92	0.32	0.00	17.53	7.303	5.30319	7.29147	0.0
7.9777	88.0132	-0.92	0.32	0.00	17.53	7.303	5.30510	7.29411	4.0
7.9977	88.0532	-0.92	0.32	0.00	17.53	7.303	5.30702	7.29675	0.0
8.0177	88.0932	-0.92	0.32	0.00	17.53	7.303	5.30894	7.29938	2.0
8.0377	88.1332	-0.92	0.32	0.00	17.53	7.303	5.31085	7.30201	2.0
8.0577	88.1732	-0.92	0.32	0.00	17.53	7.303	5.31277	7.30465	2.0
8.0777	88.2132	-0.92	0.32	0.00	17.53	7.303	5.31468	7.30728	2.0
8.0977	88.2532	-0.92	0.32	0.00	17.53	7.303	5.31660	7.30991	2.0
8.1177	88.2932	-0.92	0.32	0.00	17.53	7.303	5.31851	7.31254	4.0
8.1377	88.3332	-0.92	0.32	0.00	17.53	7.303	5.32042	7.31517	0.0
8.1577	88.3732	-0.92	0.32	0.00	17.53	7.303	5.32233	7.31780	0.0
8.1777	88.4132	-0.92	0.32	0.00	17.53	7.303	5.32424	7.32043	2.0
8.1977	88.4532	-0.92	0.32	0.00	17.53	7.303	5.32615	7.32305	2.0
8.2177	88.4932	-0.92	0.32	0.00	17.53	7.303	5.32806	7.32568	2.0
8.2377	88.5332	-0.92	0.32	0.00	17.53	7.303	5.32997	7.32830	6.0
8.2577	88.5732	-0.92	0.32	0.00	17.53	7.303	5.33188	7.33093	2.0
8.2777	88.6132	-0.92	0.32	0.00	17.53	7.303	5.33379	7.33355	0.0
8.2977	88.6532	-0.92	0.32	0.00	17.53	7.303	5.33570	7.33617	2.0
8.3177	88.6932	-0.92	0.32	0.00	17.53	7.303	5.33760	7.33879	2.0
8.3377	88.7332	-0.92	0.32	0.00	17.53	7.303	5.33951	7.34141	0.0
8.3577	88.7732	-0.92	0.32	0.00	17.53	7.303	5.34141	7.34403	2.0
8.3777	88.8132	-0.92	0.32	0.00	17.53	7.303	5.34332	7.34665	0.0
8.3977	88.8532	-0.92	0.32	0.00	17.53	7.303	5.34522	7.34927	2.0
8.4177	88.8932	-0.92	0.32	0.00	17.53	7.303	5.34713	7.35189	0.0
8.4377	88.9332	-0.92	0.32	0.00	17.53	7.303	5.34903	7.35450	2.0
8.4577	88.9732	-0.92	0.32	0.00	17.53	7.303	5.35093	7.35712	0.0
8.4777	89.0132	-0.92	0.32	0.00	17.53	7.303	5.35283	7.35973	2.0

6.5177	85.0532	-0.92	0.32	0.00	17.53	7.303	5.15900	7.09844	4.0
6.5377	85.0932	-0.92	0.32	0.00	17.53	7.303	5.16096	7.10114	0.0
6.5577	85.1332	-0.92	0.32	0.00	17.53	7.303	5.16293	7.10384	0.0
6.5777	85.1732	-0.92	0.32	0.00	17.53	7.303	5.16489	7.10654	0.0
6.5977	85.2132	-0.92	0.32	0.00	17.53	7.303	5.16685	7.10924	0.0
6.6177	85.2532	-0.92	0.32	0.00	17.53	7.303	5.16881	7.11193	0.0
6.6377	85.2932	-0.92	0.32	0.00	17.53	7.303	5.17077	7.11463	2.0
6.6577	85.3332	-0.92	0.32	0.00	17.53	7.303	5.17273	7.11733	2.0
6.6777	85.3732	-0.92	0.32	0.00	17.53	7.303	5.17469	7.12002	4.0
6.6977	85.4132	-0.92	0.32	0.00	17.53	7.303	5.17665	7.12272	0.0
6.7177	85.4532	-0.92	0.32	0.00	17.53	7.303	5.17860	7.12541	2.0
6.7377	85.4932	-0.92	0.32	0.00	17.53	7.303	5.18056	7.12810	0.0
6.7577	85.5332	-0.92	0.32	0.00	17.53	7.303	5.18252	7.13079	0.0
6.7777	85.5732	-0.92	0.32	0.00	17.53	7.303	5.18447	7.13348	0.0
6.7977	85.6132	-0.92	0.32	0.00	17.53	7.303	5.18643	7.13617	2.0
6.8177	85.6532	-0.92	0.32	0.00	17.53	7.303	5.18838	7.13886	0.0
6.8377	85.6932	-0.92	0.32	0.00	17.53	7.303	5.19034	7.14155	0.0
6.8577	85.7332	-0.92	0.32	0.00	17.53	7.303	5.19229	7.14424	2.0
6.8777	85.7732	-0.92	0.32	0.00	17.53	7.303	5.19424	7.14692	2.0
6.8977	85.8132	-0.92	0.32	0.00	17.53	7.303	5.19619	7.14961	0.0
6.9177	85.8532	-0.92	0.32	0.00	17.53	7.303	5.19814	7.15229	0.0
6.9377	85.8932	-0.92	0.32	0.00	17.53	7.303	5.20009	7.15498	4.0
6.9577	85.9332	-0.92	0.32	0.00	17.53	7.303	5.20204	7.15766	2.0
6.9777	85.9732	-0.92	0.32	0.00	17.53	7.303	5.20399	7.16034	0.0
6.9977	86.0132	-0.92	0.32	0.00	17.53	7.303	5.20594	7.16302	0.0
7.0177	86.0532	-0.92	0.32	0.00	17.53	7.303	5.20789	7.16570	0.0
7.0377	86.0932	-0.92	0.32	0.00	17.53	7.303	5.20984	7.16838	2.0
7.0577	86.1332	-0.92	0.32	0.00	17.53	7.303	5.21178	7.17106	0.0
7.0777	86.1732	-0.92	0.32	0.00	17.53	7.303	5.21373	7.17374	4.0
7.0977	86.2132	-0.92	0.32	0.00	17.53	7.303	5.21568	7.17642	0.0
7.1177	86.2532	-0.92	0.32	0.00	17.53	7.303	5.21762	7.17909	0.0
7.1377	86.2932	-0.92	0.32	0.00	17.53	7.303	5.21956	7.18177	0.0
7.1577	86.3332	-0.92	0.32	0.00	17.53	7.303	5.22151	7.18444	0.0
7.1777	86.3732	-0.92	0.32	0.00	17.53	7.303	5.22345	7.18711	4.0
7.1977	86.4132	-0.92	0.32	0.00	17.53	7.303	5.22539	7.18979	0.0
7.2177	86.4532	-0.92	0.32	0.00	17.53	7.303	5.22733	7.19246	0.0
7.2377	86.4932	-0.92	0.32	0.00	17.53	7.303	5.22928	7.19513	2.0
7.2577	86.5332	-0.92	0.32	0.00	17.53	7.303	5.23122	7.19780	0.0
7.2777	86.5732	-0.92	0.32	0.00	17.53	7.303	5.23316	7.20047	6.0
7.2977	86.6132	-0.92	0.32	0.00	17.53	7.303	5.23509	7.20314	0.0
7.3177	86.6532	-0.92	0.32	0.00	17.53	7.303	5.23703	7.20580	0.0
7.3377	86.6932	-0.92	0.32	0.00	17.53	7.303	5.23897	7.20847	4.0
7.3577	86.7332	-0.92	0.32	0.00	17.53	7.303	5.24091	7.21113	2.0
7.3777	86.7732	-0.92	0.32	0.00	17.53	7.303	5.24284	7.21380	2.0
7.3977	86.8132	-0.92	0.32	0.00	17.53	7.303	5.24478	7.21646	2.0
7.4177	86.8532	-0.92	0.32	0.00	17.53	7.303	5.24672	7.21913	2.0
7.4377	86.8932	-0.92	0.32	0.00	17.53	7.303	5.24865	7.22179	0.0
7.4577	86.9332	-0.92	0.32	0.00	17.53	7.303	5.25058	7.22445	0.0
7.4777	86.9732	-0.92	0.32	0.00	17.53	7.303	5.25252	7.22711	0.0
7.4977	87.0132	-0.92	0.32	0.00	17.53	7.303	5.25445	7.22977	0.0
7.5177	87.0532	-0.92	0.32	0.00	17.53	7.303	5.25638	7.23243	0.0
7.5377	87.0932	-0.92	0.32	0.00	17.53	7.303	5.25831	7.23508	2.0
7.5577	87.1332	-0.92	0.32	0.00	17.53	7.303	5.26024	7.23774	0.0
7.5777	87.1732	-0.92	0.32	0.00	17.53	7.303	5.26217	7.24040	0.0
7.5977	87.2132	-0.92	0.32	0.00	17.53	7.303	5.26410	7.24305	0.0
7.6177	87.2532	-0.92	0.32	0.00	17.53	7.303	5.26603	7.24570	0.0
7.6377	87.2932	-0.92	0.32	0.00	17.53	7.303	5.26796	7.24836	0.0
7.6577	87.3332	-0.92	0.32	0.00	17.53	7.303	5.26989	7.25101	2.0
7.6777	87.3732	-0.92	0.32	0.00	17.53	7.303	5.27181	7.25366	0.0
7.6977	87.4132	-0.92	0.32	0.00	17.53	7.303	5.27374	7.25631	0.0
7.7177	87.4532	-0.92	0.32	0.00	17.53	7.303	5.27567	7.25896	2.0
7.7377	87.4932	-0.92	0.32	0.00	17.53	7.303	5.27759	7.26161	0.0
7.7577	87.5332	-0.92	0.32	0.00	17.53	7.303	5.27952	7.26426	0.0
7.7777	87.5732	-0.92	0.32	0.00	17.53	7.303	5.28144	7.26690	4.0
7.7977	87.6132	-0.92	0.32	0.00	17.53	7.303	5.28336	7.26955	2.0
7.8177	87.6532	-0.92	0.32	0.00	17.53	7.303	5.28529	7.27220	2.0
7.8377	87.6932	-0.92	0.32	0.00	17.53	7.303	5.28721	7.27484	0.0
7.8577	87.7332	-0.92	0.32	0.00	17.53	7.303	5.28913	7.27748	2.0
7.8777	87.7732	-0.92	0.32	0.00	17.53	7.303	5.29105	7.28013	0.0
[...]
9.7377	87.6132	-0.92	0.32	0.00	17.53	7.303	5.03424	7.44424	4.0
9.7577	87.6532	-0.92	0.32	0.00	17.53	7.303	5.03607	7.44695	2.0
9.7777	87.6932	-0.92	0.32	0.00	17.53	7.303	5.03790	7.44966	0.0
9.7977	87.7332	-0.92	0.32	0.00	17.53	7.303	5.03973	7.45236	0.0
9.8177	87.7732	-0.92	0.32	0.00	17.53	7.303	5.04156	7.45507	0.0
9.8377	87.8132	-0.92	0.32	0.00	17.53	7.303	5.04339	7.45777	4.0
9.8577	87.8532	-0.92	0.32	0.00	17.53	7.303	5.04522	7.46048	2.0
9.8777	87.8932	-0.92	0.32	0.00	17.53	7.303	5.04705	7.46318	0.0
9.8977	87.9332	-0.92	0.32	0.00	17.53	7.303	5.04888	7.46588	0.0
9.9177	87.9732	-0.92	0.32	0.00	17.53	7.303	5.05070	7.46859	0.0
9.9377	88.0132	-0.92	0.32	0.00	17.53	7.303	5.05253	7.47129	0.0
9.9577	88.0532	-0.92	0.32	0.00	17.53	7.303	5.05435	7.47399	0.0
9.9777	88.0932	-0.92	0.32	0.00	17.53	7.303	5.05618	7.47668	0.0
9.9977	88.1332	-0.92	0.32	0.00	17.53	7.303	5.05800	7.47938	0.0
10.0177	88.1732	-0.92	0.32	0.00	17.53	7.303	5.05983	7.48208	2.0
10.0377	88.2132	-0.92	0.32	0.00	17.53	7.303	5.06165	7.48477	0.0
10.0577	88.2532	-0.92	0.32	0.00	17.53	7.303	5.06347	7.48747	0.0
10.0777	88.2932	-0.92	0.32	0.00	17.53	7.303	5.06530	7.49016	2.0
10.0977	88.3332	-0.92	0.32	0.00	17.53	7.303	5.06712	7.49286	0.0
10.1177	88.3732	-0.92	0.32	0.00	17.53	7.303	5.06894	7.49555	2.0
10.1377	88.4132	-0.92	0.32	0.00	17.53	7.303	5.07076	7.49824	0.0
10.1577	88.4532	-0.92	0.32	0.00	17.53	7.303	5.07258	7.50093	2.0
10.1777	88.4932	-0.92	0.32	0.00	17.53	7.303	5.07440	7.50362	0.0
10.1977	88.5332	-0.92	0.32	0.00	17.53	7.303	5.07621	7.50631	0.0
10.2177	88.5732	-0.92	0.32	0.00	17.53	7.303	5.07803	7.50900	2.0
10.2377	88.6132	-0.92	0.32	0.00	17.53	7.303	5.07985	7.51168	2.0
10.2577	88.6532	-0.92	0.32	0.00	17.53	7.303	5.08166	7.51437	8.0
10.2777	88.6932	-0.92	0.32	0.00	17.53	7.303	5.08348	7.51705	0.0
10.2977	88.7332	-0.92	0.32	0.00	17.53	7.303	5.08530	7.51974	0.0
10.3177	88.7732	-0.92	0.32	0.00	17.53	7.303	5.08711	7.52242	4.0
10.3377	88.8132	-0.92	0.32	0.00	17.53	7.303	5.08892	7.52510	2.0
10.3577	88.8532	-0.92	0.32	0.00	17.53	7.303	5.09074	7.52779	0.0
10.3777	88.8932	-0.92	0.32	0.00	17.53	7.303	5.09255	7.53047	2.0
10.3977	88.9332	-0.92	0.32	0.00	17.53	7.303	5.09436	7.53315	0.0
10.4177	88.9732	-0.92	0.32	0.00	17.53	7.303	5.09617	7.53582	0.0
10.4377	89.0132	-0.92	0.32	0.00	17.53	7.303	5.09798	7.53850	2.0

8.4777	85.0532	-0.92	0.32	0.00	17.53	7.303	4.91320	7.27073	0.0
8.4977	85.0932	-0.92	0.32	0.00	17.53	7.303	4.91507	7.27350	2.0
8.5177	85.1332	-0.92	0.32	0.00	17.53	7.303	4.91694	7.27626	4.0
8.5377	85.1732	-0.92	0.32	0.00	17.53	7.303	4.91881	7.27903	2.0
8.5577	85.2132	-0.92	0.32	0.00	17.53	7.303	4.92068	7.28179	0.0
8.5777	85.2532	-0.92	0.32	0.00	17.53	7.303	4.92255	7.28456	0.0
8.5977	85.2932	-0.92	0.32	0.00	17.53	7.303	4.92441	7.28732	0.0
8.6177	85.3332	-0.92	0.32	0.00	17.53	7.303	4.92628	7.29008	4.0
8.6377	85.3732	-0.92	0.32	0.00	17.53	7.303	4.92814	7.29284	4.0
8.6577	85.4132	-0.92	0.32	0.00	17.53	7.303	4.93001	7.29560	2.0
8.6777	85.4532	-0.92	0.32	0.00	17.53	7.303	4.93187	7.29836	6.0
8.6977	85.4932	-0.92	0.32	0.00	17.53	7.303	4.93374	7.30112	2.0
8.7177	85.5332	-0.92	0.32	0.00	17.53	7.303	4.93560	7.30387	2.0
8.7377	85.5732	-0.92	0.32	0.00	17.53	7.303	4.93746	7.30663	0.0
8.7577	85.6132	-0.92	0.32	0.00	17.53	7.303	4.93932	7.30938	2.0
8.7777	85.6532	-0.92	0.32	0.00	17.53	7.303	4.94118	7.31214	0.0
8.7977	85.6932	-0.92	0.32	0.00	17.53	7.303	4.94304	7.31489	0.0
8.8177	85.7332	-0.92	0.32	0.00	17.53	7.303	4.94490	7.31764	0.0
8.8377	85.7732	-0.92	0.32	0.00	17.53	7.303	4.94676	7.32040	4.0
8.8577	85.8132	-0.92	0.32	0.00	17.53	7.303	4.94862	7.32315	0.0
8.8777	85.8532	-0.92	0.32	0.00	17.53	7.303	4.95048	7.32590	0.0
8.8977	85.8932	-0.92	0.32	0.00	17.53	7.303	4.95234	7.32864	2.0
8.9177	85.9332	-0.92	0.32	0.00	17.53	7.303	4.95420	7.33139	4.0
8.9377	85.9732	-0.92	0.32	0.00	17.53	7.303	4.95605	7.33414	0.0
8.9577	86.0132	-0.92	0.32	0.00	17.53	7.303	4.95791	7.33689	2.0
8.9777	86.0532	-0.92	0.32	0.00	17.53	7.303	4.95976	7.33963	0.0
8.9977	86.0932	-0.92	0.32	0.00	17.53	7.303	4.96162	7.34238	0.0
9.0177	86.1332	-0.92	0.32	0.00	17.53	7.303	4.96347	7.34512	0.0
9.0377	86.1732	-0.92	0.32	0.00	17.53	7.303	4.96532	7.34786	4.0
9.0577	86.2132	-0.92	0.32	0.00	17.53	7.303	4.96718	7.35060	0.0
9.0777	86.2532	-0.92	0.32	0.00	17.53	7.303	4.96903	7.35334	2.0
9.0977	86.2932	-0.92	0.32	0.00	17.53	7.303	4.97088	7.35608	0.0
9.1177	86.3332	-0.92	0.32	0.00	17.53	7.303	4.97273	7.35882	0.0
9.1377	86.3732	-0.92	0.32	0.00	17.53	7.303	4.97458	7.36156	0.0
9.1577	86.4132	-0.92	0.32	0.00	17.53	7.303	4.97643	7.36430	4.0
9.1777	86.4532	-0.92	0.32	0.00	17.53	7.303	4.97828	7.36704	0.0
9.1977	86.4932	-0.92	0.32	0.00	17.53	7.303	4.98013	7.36977	0.0
9.2177	86.5332	-0.92	0.32	0.00	17.53	7.303	4.98198	7.37251	0.0
9.2377	86.5732	-0.92	0.32	0.00	17.53	7.303	4.98382	7.37524	0.0
9.2577	86.6132	-0.92	0.32	0.00	17.53	7.303	4.98567	7.37797	2.0
9.2777	86.6532	-0.92	0.32	0.00	17.53	7.303	4.98752	7.38070	6.0
9.2977	86.6932	-0.92	0.32	0.00	17.53	7.303	4.98936	7.38343	4.0
9.3177	86.7332	-0.92	0.32	0.00	17.53	7.303	4.99121	7.38616	0.0
9.3377	86.7732	-0.92	0.32	0.00	17.53	7.303	4.99305	7.38889	0.0
9.3577	86.8132	-0.92	0.32	0.00	17.53	7.303	4.99490	7.39162	0.0
9.3777	86.8532	-0.92	0.32	0.00	17.53	7.303	4.99674	7.39435	2.0
9.3977	86.8932	-0.92	0.32	0.00	17.53	7.303	4.99858	7.39708	0.0
9.4177	86.9332	-0.92	0.32	0.00	17.53	7.303	5.00042	7.39980	4.0
9.4377	86.9732	-0.92	0.32	0.00	17.53	7.303	5.00226	7.40253	0.0
9.4577	87.0132	-0.92	0.32	0.00	17.53	7.303	5.00410	7.40525	0.0
9.4777	87.0532	-0.92	0.32	0.00	17.53	7.303	5.00594	7.40797	0.0
9.4977	87.0932	-0.92	0.32	0.00	17.53	7.303	5.00778	7.41069	0.0
9.5177	87.1332	-0.92	0.32	0.00	17.53	7.303	5.00962	7.41342	2.0
9.5377	87.1732	-0.92	0.32	0.00	17.53	7.303	5.01146	7.41614	4.0
9.5577	87.2132	-0.92	0.32	0.00	17.53	7.303	5.01330	7.41885	2.0
9.5777	87.2532	-0.92	0.32	0.00	17.53	7.303	5.01514	7.42157	4.0
9.5977	87.2932	-0.92	0.32	0.00	17.53	7.303	5.01697	7.42429	4.0
9.6177	87.3332	-0.92	0.32	0.00	17.53	7.303	5.01881	7.42701	2.0
9.6377	87.3732	-0.92	0.32	0.00	17.53	7.303	5.02064	7.42972	0.0
9.6577	87.4132	-0.92	0.32	0.00	17.53	7.303	5.02248	7.43244	0.0
9.6777	87.4532	-0.92	0.32	0.00	17.53	7.303	5.02431	7.43515	2.0
9.6977	87.4932	-0.92	0.32	0.00	17.53	7.303	5.02614	7.43786	0.0
9.7177	87.5332	-0.92	0.32	0.00	17.53	7.303	5.02798	7.44058	0.0
9.7377	87.5732	-0.92	0.32	0.00	17.53	7.303	5.02981	7.44329	4.0
9.7577	87.6132	-0.92	0.32	0.00	17.53	7.303	5.03164	7.44600	0.0
9.7777	87.6532	-0.92	0.32	0.00	17.53	7.303	5.03347	7.44871	2.0
9.7977	87.6932	-0.92	0.32	0.00	17.53	7.303	5.03530	7.45142	2.0
9.8177	87.7332	-0.92	0.32	0.00	17.53	7.303	5.03713	7.45412	2.0
9.8377	87.7732	-0.92	0.32	0.00	17.53	7.303	5.03896	7.45683	2.0
9.8577	87.8132	-0.92	0.32	0.00	17.53	7.303	5.04079	7.45953	0.0
9.8777	87.8532	-0.92	0.32	0.00	17.53	7.303	5.04262	7.46224	2.0
9.8977	87.8932	-0.92	0.32	0.00	17.53	7.303	5.04444	7.46494	0.0
9.9177	87.9332	-0.92	0.32	0.00	17.53	7.303	5.04627	7.46765	2.0
9.9377	87.9732	-0.92	0.32	0.00	17.53	7.303	5.04810	7.47035	2.0
9.9577	88.0132	-0.92	0.32	0.00	17.53	7.303	5.04992	7.47305	2.0
9.9777	88.0532	-0.92	0.32	0.00	17.53	7.303	5.05175	7.47575	0.0
9.9977	88.0932	-0.92	0.32	0.00	17.53	7.303	5.05357	7.47845	0.0
10.0177	88.1332	-0.92	0.32	0.00	17.53	7.303	5.05539	7.48115	0.0
10.0377	88.1732	-0.92	0.32	0.00	17.53	7.303	5.05722	7.48384	0.0
10.0577	88.2132	-0.92	0.32	0.00	17.53	7.303	5.05904	7.48654	0.0
10.0777	88.2532	-0.92	0.32	0.00	17.53	7.303	5.06086	7.48924	0.0
10.0977	88.2932	-0.92	0.32	0.00	17.53	7.303	5.06268	7.49193	0.0
10.1177	88.3332	-0.92	0.32	0.00	17.53	7.303	5.06450	7.49463	0.0
10.1377	88.3732	-0.92	0.32	0.00	17.53	7.303	5.06632	7.49732	0.0
10.1577	88.4132	-0.92	0.32	0.00	17.53	7.303	5.06814	7.50001	2.0
10.1777	88.4532	-0.92	0.32	0.00	17.53	7.303	5.06996	7.50270	2.0
10.1977	88.4932	-0.92	0.32	0.00	17.53	7.303	5.07178	7.50539	0.0
10.2177	88.5332	-0.92	0.32	0.00	17.53	7.303	5.07359	7.50808	0.0
10.2377	88.5732	-0.92	0.32	0.00	17.53	7.303	5.07541	7.51077	0.0
10.2577	88.6132	-0.92	0.32	0.00	17.53	7.303	5.07723	7.51346	2.0
10.2777	88.6532	-0.92	0.32	0.00	17.53	7.303	5.07904	7.51614	0.0
10.2977	88.6932	-0.92	0.32	0.00	17.53	7.303	5.08086	7.51883	0.0
10.3177	88.7332	-0.92	0.32	0.00	17.53	7.303	5.08267	7.52151	2.0
10.3377	88.7732	-0.92	0.32	0.00	17.53	7.303	5.08448	7.52420	2.0
10.3577	88.8132	-0.92	0.32	0.00	17.53	7.303	5.08630	7.52688	2.0
10.3777	88.8532	-0.92	0.32	0.00	17.53	7.303	5.08811	7.52956	0.0
10.3977	88.8932	-0.92	0.32	0.00	17.53	7.303	5.08992	7.53224	2.0
10.4177	88.9332	-0.92	0.32	0.00	17.53	7.303	5.09173	7.53492	0.0
10.4377	88.9732	-0.92	0.32	0.00	17.53	7.303	5.09354	7.53760	2.0
10.4577	89.0132	-0.92	0.32	0.00	17.53	7.303	5.09535	7.54028	0.0