Folder: Thesis_XRD/Data/113xx

File: 2.0deg-2.0deg-rsm-3h10m_11358-annealed_224.dat
# filename: /home/lepecvd/lepecvd/11358/xray/2.0deg-2.0deg-rsm-3h10m_11358-E4_224.xrdml
# reflection: ('2', '2', '4')
# type: Area measurement
# x-axis: Omega_2Theta
# y-axis: Omega
#
# Omega	2Theta	Phi  	Chi   	X    	Y    	Z    	q_para	q_perp	Intensity
# [deg]	[deg] 	[deg]	[deg] 	[mm] 	[mm] 	[mm] 	[nm-1]	[nm-1]	[counts/s]
6.1544	85.0724	-0.24	0.13	0.00	-23.01	7.396	5.20604	7.06600	0.0
6.1744	85.1124	-0.24	0.13	0.00	-23.01	7.396	5.20802	7.06869	6.0
6.1944	85.1524	-0.24	0.13	0.00	-23.01	7.396	5.21000	7.07138	2.0
6.2144	85.1924	-0.24	0.13	0.00	-23.01	7.396	5.21198	7.07406	0.0
6.2344	85.2324	-0.24	0.13	0.00	-23.01	7.396	5.21396	7.07675	2.0
6.2544	85.2724	-0.24	0.13	0.00	-23.01	7.396	5.21594	7.07943	0.0
6.2744	85.3124	-0.24	0.13	0.00	-23.01	7.396	5.21791	7.08211	0.0
6.2944	85.3524	-0.24	0.13	0.00	-23.01	7.396	5.21989	7.08480	0.0
6.3144	85.3924	-0.24	0.13	0.00	-23.01	7.396	5.22187	7.08748	0.0
6.3344	85.4324	-0.24	0.13	0.00	-23.01	7.396	5.22384	7.09016	0.0
6.3544	85.4724	-0.24	0.13	0.00	-23.01	7.396	5.22582	7.09284	0.0
6.3744	85.5124	-0.24	0.13	0.00	-23.01	7.396	5.22779	7.09552	2.0
6.3944	85.5524	-0.24	0.13	0.00	-23.01	7.396	5.22976	7.09820	0.0
6.4144	85.5924	-0.24	0.13	0.00	-23.01	7.396	5.23174	7.10088	2.0
6.4344	85.6324	-0.24	0.13	0.00	-23.01	7.396	5.23371	7.10355	0.0
6.4544	85.6724	-0.24	0.13	0.00	-23.01	7.396	5.23568	7.10623	2.0
6.4744	85.7124	-0.24	0.13	0.00	-23.01	7.396	5.23765	7.10890	2.0
6.4944	85.7524	-0.24	0.13	0.00	-23.01	7.396	5.23962	7.11158	2.0
6.5144	85.7924	-0.24	0.13	0.00	-23.01	7.396	5.24159	7.11425	2.0
6.5344	85.8324	-0.24	0.13	0.00	-23.01	7.396	5.24356	7.11692	4.0
6.5544	85.8724	-0.24	0.13	0.00	-23.01	7.396	5.24553	7.11959	0.0
6.5744	85.9124	-0.24	0.13	0.00	-23.01	7.396	5.24750	7.12226	0.0
6.5944	85.9524	-0.24	0.13	0.00	-23.01	7.396	5.24946	7.12493	0.0
6.6144	85.9924	-0.24	0.13	0.00	-23.01	7.396	5.25143	7.12760	0.0
6.6344	86.0324	-0.24	0.13	0.00	-23.01	7.396	5.25339	7.13027	0.0
6.6544	86.0724	-0.24	0.13	0.00	-23.01	7.396	5.25536	7.13294	2.0
6.6744	86.1124	-0.24	0.13	0.00	-23.01	7.396	5.25732	7.13560	4.0
6.6944	86.1524	-0.24	0.13	0.00	-23.01	7.396	5.25929	7.13827	2.0
6.7144	86.1924	-0.24	0.13	0.00	-23.01	7.396	5.26125	7.14093	0.0
6.7344	86.2324	-0.24	0.13	0.00	-23.01	7.396	5.26321	7.14360	0.0
6.7544	86.2724	-0.24	0.13	0.00	-23.01	7.396	5.26517	7.14626	2.0
6.7744	86.3124	-0.24	0.13	0.00	-23.01	7.396	5.26714	7.14892	0.0
6.7944	86.3524	-0.24	0.13	0.00	-23.01	7.396	5.26910	7.15158	2.0
6.8144	86.3924	-0.24	0.13	0.00	-23.01	7.396	5.27106	7.15424	0.0
6.8344	86.4324	-0.24	0.13	0.00	-23.01	7.396	5.27302	7.15690	0.0
6.8544	86.4724	-0.24	0.13	0.00	-23.01	7.396	5.27497	7.15956	2.0
6.8744	86.5124	-0.24	0.13	0.00	-23.01	7.396	5.27693	7.16222	0.0
6.8944	86.5524	-0.24	0.13	0.00	-23.01	7.396	5.27889	7.16488	0.0
6.9144	86.5924	-0.24	0.13	0.00	-23.01	7.396	5.28085	7.16753	6.0
6.9344	86.6324	-0.24	0.13	0.00	-23.01	7.396	5.28280	7.17019	2.0
6.9544	86.6724	-0.24	0.13	0.00	-23.01	7.396	5.28476	7.17284	2.0
6.9744	86.7124	-0.24	0.13	0.00	-23.01	7.396	5.28671	7.17549	0.0
6.9944	86.7524	-0.24	0.13	0.00	-23.01	7.396	5.28867	7.17815	0.0
7.0144	86.7924	-0.24	0.13	0.00	-23.01	7.396	5.29062	7.18080	2.0
7.0344	86.8324	-0.24	0.13	0.00	-23.01	7.396	5.29257	7.18345	2.0
7.0544	86.8724	-0.24	0.13	0.00	-23.01	7.396	5.29453	7.18610	0.0
7.0744	86.9124	-0.24	0.13	0.00	-23.01	7.396	5.29648	7.18875	2.0
7.0944	86.9524	-0.24	0.13	0.00	-23.01	7.396	5.29843	7.19139	0.0
7.1144	86.9924	-0.24	0.13	0.00	-23.01	7.396	5.30038	7.19404	4.0
7.1344	87.0324	-0.24	0.13	0.00	-23.01	7.396	5.30233	7.19669	0.0
7.1544	87.0724	-0.24	0.13	0.00	-23.01	7.396	5.30428	7.19933	2.0
7.1744	87.1124	-0.24	0.13	0.00	-23.01	7.396	5.30623	7.20198	0.0
7.1944	87.1524	-0.24	0.13	0.00	-23.01	7.396	5.30817	7.20462	0.0
7.2144	87.1924	-0.24	0.13	0.00	-23.01	7.396	5.31012	7.20726	0.0
7.2344	87.2324	-0.24	0.13	0.00	-23.01	7.396	5.31207	7.20990	0.0
7.2544	87.2724	-0.24	0.13	0.00	-23.01	7.396	5.31401	7.21255	2.0
7.2744	87.3124	-0.24	0.13	0.00	-23.01	7.396	5.31596	7.21519	0.0
7.2944	87.3524	-0.24	0.13	0.00	-23.01	7.396	5.31790	7.21783	6.0
7.3144	87.3924	-0.24	0.13	0.00	-23.01	7.396	5.31985	7.22046	4.0
7.3344	87.4324	-0.24	0.13	0.00	-23.01	7.396	5.32179	7.22310	4.0
7.3544	87.4724	-0.24	0.13	0.00	-23.01	7.396	5.32373	7.22574	0.0
7.3744	87.5124	-0.24	0.13	0.00	-23.01	7.396	5.32567	7.22837	0.0
7.3944	87.5524	-0.24	0.13	0.00	-23.01	7.396	5.32761	7.23101	2.0
7.4144	87.5924	-0.24	0.13	0.00	-23.01	7.396	5.32955	7.23364	0.0
7.4344	87.6324	-0.24	0.13	0.00	-23.01	7.396	5.33149	7.23627	0.0
7.4544	87.6724	-0.24	0.13	0.00	-23.01	7.396	5.33343	7.23891	2.0
7.4744	87.7124	-0.24	0.13	0.00	-23.01	7.396	5.33537	7.24154	0.0
7.4944	87.7524	-0.24	0.13	0.00	-23.01	7.396	5.33731	7.24417	2.0
7.5144	87.7924	-0.24	0.13	0.00	-23.01	7.396	5.33925	7.24680	0.0
7.5344	87.8324	-0.24	0.13	0.00	-23.01	7.396	5.34118	7.24943	4.0
7.5544	87.8724	-0.24	0.13	0.00	-23.01	7.396	5.34312	7.25205	0.0
7.5744	87.9124	-0.24	0.13	0.00	-23.01	7.396	5.34506	7.25468	4.0
7.5944	87.9524	-0.24	0.13	0.00	-23.01	7.396	5.34699	7.25731	0.0
7.6144	87.9924	-0.24	0.13	0.00	-23.01	7.396	5.34892	7.25993	0.0
7.6344	88.0324	-0.24	0.13	0.00	-23.01	7.396	5.35086	7.26256	2.0
7.6544	88.0724	-0.24	0.13	0.00	-23.01	7.396	5.35279	7.26518	2.0
7.6744	88.1124	-0.24	0.13	0.00	-23.01	7.396	5.35472	7.26780	4.0
7.6944	88.1524	-0.24	0.13	0.00	-23.01	7.396	5.35665	7.27042	4.0
7.7144	88.1924	-0.24	0.13	0.00	-23.01	7.396	5.35858	7.27304	2.0
7.7344	88.2324	-0.24	0.13	0.00	-23.01	7.396	5.36051	7.27566	0.0
7.7544	88.2724	-0.24	0.13	0.00	-23.01	7.396	5.36244	7.27828	2.0
7.7744	88.3124	-0.24	0.13	0.00	-23.01	7.396	5.36437	7.28090	2.0
7.7944	88.3524	-0.24	0.13	0.00	-23.01	7.396	5.36630	7.28352	0.0
7.8144	88.3924	-0.24	0.13	0.00	-23.01	7.396	5.36823	7.28613	0.0
7.8344	88.4324	-0.24	0.13	0.00	-23.01	7.396	5.37016	7.28875	0.0
7.8544	88.4724	-0.24	0.13	0.00	-23.01	7.396	5.37208	7.29136	0.0
7.8744	88.5124	-0.24	0.13	0.00	-23.01	7.396	5.37401	7.29398	2.0
7.8944	88.5524	-0.24	0.13	0.00	-23.01	7.396	5.37593	7.29659	0.0
7.9144	88.5924	-0.24	0.13	0.00	-23.01	7.396	5.37786	7.29920	0.0
7.9344	88.6324	-0.24	0.13	0.00	-23.01	7.396	5.37978	7.30181	0.0
7.9544	88.6724	-0.24	0.13	0.00	-23.01	7.396	5.38170	7.30442	0.0
7.9744	88.7124	-0.24	0.13	0.00	-23.01	7.396	5.38363	7.30703	2.0
7.9944	88.7524	-0.24	0.13	0.00	-23.01	7.396	5.38555	7.30964	0.0
8.0144	88.7924	-0.24	0.13	0.00	-23.01	7.396	5.38747	7.31225	8.0
8.0344	88.8324	-0.24	0.13	0.00	-23.01	7.396	5.38939	7.31485	0.0
8.0544	88.8724	-0.24	0.13	0.00	-23.01	7.396	5.39131	7.31746	4.0
8.0744	88.9124	-0.24	0.13	0.00	-23.01	7.396	5.39323	7.32006	0.0
8.0944	88.9524	-0.24	0.13	0.00	-23.01	7.396	5.39515	7.32267	0.0
8.1144	88.9924	-0.24	0.13	0.00	-23.01	7.396	5.39706	7.32527	2.0
8.1344	89.0324	-0.24	0.13	0.00	-23.01	7.396	5.39898	7.32787	2.0

6.1744	85.0724	-0.24	0.13	0.00	-23.01	7.396	5.20357	7.06782	0.0
6.1944	85.1124	-0.24	0.13	0.00	-23.01	7.396	5.20555	7.07051	4.0
6.2144	85.1524	-0.24	0.13	0.00	-23.01	7.396	5.20753	7.07319	0.0
6.2344	85.1924	-0.24	0.13	0.00	-23.01	7.396	5.20951	7.07588	2.0
6.2544	85.2324	-0.24	0.13	0.00	-23.01	7.396	5.21149	7.07857	2.0
6.2744	85.2724	-0.24	0.13	0.00	-23.01	7.396	5.21347	7.08125	2.0
6.2944	85.3124	-0.24	0.13	0.00	-23.01	7.396	5.21544	7.08394	6.0
6.3144	85.3524	-0.24	0.13	0.00	-23.01	7.396	5.21742	7.08662	2.0
6.3344	85.3924	-0.24	0.13	0.00	-23.01	7.396	5.21939	7.08930	0.0
[...]
9.0144	86.7924	-0.24	0.13	0.00	-23.01	7.396	5.03679	7.36106	0.0
9.0344	86.8324	-0.24	0.13	0.00	-23.01	7.396	5.03865	7.36378	0.0
9.0544	86.8724	-0.24	0.13	0.00	-23.01	7.396	5.04051	7.36650	0.0
9.0744	86.9124	-0.24	0.13	0.00	-23.01	7.396	5.04237	7.36921	2.0
9.0944	86.9524	-0.24	0.13	0.00	-23.01	7.396	5.04422	7.37193	2.0
9.1144	86.9924	-0.24	0.13	0.00	-23.01	7.396	5.04608	7.37464	8.0
9.1344	87.0324	-0.24	0.13	0.00	-23.01	7.396	5.04794	7.37735	0.0
9.1544	87.0724	-0.24	0.13	0.00	-23.01	7.396	5.04979	7.38006	4.0
9.1744	87.1124	-0.24	0.13	0.00	-23.01	7.396	5.05165	7.38277	0.0
9.1944	87.1524	-0.24	0.13	0.00	-23.01	7.396	5.05350	7.38548	0.0
9.2144	87.1924	-0.24	0.13	0.00	-23.01	7.396	5.05536	7.38819	0.0
9.2344	87.2324	-0.24	0.13	0.00	-23.01	7.396	5.05721	7.39090	2.0
9.2544	87.2724	-0.24	0.13	0.00	-23.01	7.396	5.05906	7.39361	8.0
9.2744	87.3124	-0.24	0.13	0.00	-23.01	7.396	5.06091	7.39631	2.0
9.2944	87.3524	-0.24	0.13	0.00	-23.01	7.396	5.06276	7.39902	2.0
9.3144	87.3924	-0.24	0.13	0.00	-23.01	7.396	5.06461	7.40172	0.0
9.3344	87.4324	-0.24	0.13	0.00	-23.01	7.396	5.06646	7.40443	2.0
9.3544	87.4724	-0.24	0.13	0.00	-23.01	7.396	5.06831	7.40713	2.0
9.3744	87.5124	-0.24	0.13	0.00	-23.01	7.396	5.07016	7.40983	0.0
9.3944	87.5524	-0.24	0.13	0.00	-23.01	7.396	5.07201	7.41253	0.0
9.4144	87.5924	-0.24	0.13	0.00	-23.01	7.396	5.07386	7.41523	0.0
9.4344	87.6324	-0.24	0.13	0.00	-23.01	7.396	5.07570	7.41793	2.0
9.4544	87.6724	-0.24	0.13	0.00	-23.01	7.396	5.07755	7.42063	0.0
9.4744	87.7124	-0.24	0.13	0.00	-23.01	7.396	5.07940	7.42333	4.0
9.4944	87.7524	-0.24	0.13	0.00	-23.01	7.396	5.08124	7.42602	2.0
9.5144	87.7924	-0.24	0.13	0.00	-23.01	7.396	5.08309	7.42872	2.0
9.5344	87.8324	-0.24	0.13	0.00	-23.01	7.396	5.08493	7.43141	0.0
9.5544	87.8724	-0.24	0.13	0.00	-23.01	7.396	5.08677	7.43411	0.0
9.5744	87.9124	-0.24	0.13	0.00	-23.01	7.396	5.08861	7.43680	0.0
9.5944	87.9524	-0.24	0.13	0.00	-23.01	7.396	5.09046	7.43949	0.0
9.6144	87.9924	-0.24	0.13	0.00	-23.01	7.396	5.09230	7.44218	0.0
9.6344	88.0324	-0.24	0.13	0.00	-23.01	7.396	5.09414	7.44487	4.0
9.6544	88.0724	-0.24	0.13	0.00	-23.01	7.396	5.09598	7.44756	2.0
9.6744	88.1124	-0.24	0.13	0.00	-23.01	7.396	5.09782	7.45025	2.0
9.6944	88.1524	-0.24	0.13	0.00	-23.01	7.396	5.09966	7.45294	4.0
9.7144	88.1924	-0.24	0.13	0.00	-23.01	7.396	5.10149	7.45562	2.0
9.7344	88.2324	-0.24	0.13	0.00	-23.01	7.396	5.10333	7.45831	0.0
9.7544	88.2724	-0.24	0.13	0.00	-23.01	7.396	5.10517	7.46099	0.0
9.7744	88.3124	-0.24	0.13	0.00	-23.01	7.396	5.10701	7.46368	0.0
9.7944	88.3524	-0.24	0.13	0.00	-23.01	7.396	5.10884	7.46636	2.0
9.8144	88.3924	-0.24	0.13	0.00	-23.01	7.396	5.11068	7.46904	2.0
9.8344	88.4324	-0.24	0.13	0.00	-23.01	7.396	5.11251	7.47172	0.0
9.8544	88.4724	-0.24	0.13	0.00	-23.01	7.396	5.11434	7.47440	2.0
9.8744	88.5124	-0.24	0.13	0.00	-23.01	7.396	5.11618	7.47708	4.0
9.8944	88.5524	-0.24	0.13	0.00	-23.01	7.396	5.11801	7.47976	2.0
9.9144	88.5924	-0.24	0.13	0.00	-23.01	7.396	5.11984	7.48244	0.0
9.9344	88.6324	-0.24	0.13	0.00	-23.01	7.396	5.12167	7.48511	0.0
9.9544	88.6724	-0.24	0.13	0.00	-23.01	7.396	5.12350	7.48779	2.0
9.9744	88.7124	-0.24	0.13	0.00	-23.01	7.396	5.12533	7.49046	2.0
9.9944	88.7524	-0.24	0.13	0.00	-23.01	7.396	5.12716	7.49314	0.0
10.0144	88.7924	-0.24	0.13	0.00	-23.01	7.396	5.12899	7.49581	2.0
10.0344	88.8324	-0.24	0.13	0.00	-23.01	7.396	5.13082	7.49848	0.0
10.0544	88.8724	-0.24	0.13	0.00	-23.01	7.396	5.13265	7.50115	2.0
10.0744	88.9124	-0.24	0.13	0.00	-23.01	7.396	5.13448	7.50382	0.0
10.0944	88.9524	-0.24	0.13	0.00	-23.01	7.396	5.13630	7.50649	0.0
10.1144	88.9924	-0.24	0.13	0.00	-23.01	7.396	5.13813	7.50916	0.0
10.1344	89.0324	-0.24	0.13	0.00	-23.01	7.396	5.13995	7.51183	0.0

File: 2.0deg-2.0deg-rsm-3h10mins_11354-annealed_224.dat
# filename: /home/lepecvd/lepecvd/11354/xray/2.0deg-2.0deg-rsm-3h10m_11354-E4_224.xrdml
# reflection: ('2', '2', '4')
# type: Area measurement
# x-axis: Omega_2Theta
# y-axis: Omega
#
# Omega	2Theta	Phi  	Chi   	X    	Y    	Z    	q_para	q_perp	Intensity
# [deg]	[deg] 	[deg]	[deg] 	[mm] 	[mm] 	[mm] 	[nm-1]	[nm-1]	[counts/s]
6.7951	85.0742	-0.10	0.10	0.00	-22.75	7.333	5.12690	7.12381	2.0
6.8151	85.1142	-0.10	0.10	0.00	-22.75	7.333	5.12885	7.12652	4.0
6.8351	85.1542	-0.10	0.10	0.00	-22.75	7.333	5.13080	7.12923	0.0
6.8551	85.1942	-0.10	0.10	0.00	-22.75	7.333	5.13275	7.13194	2.0
6.8751	85.2342	-0.10	0.10	0.00	-22.75	7.333	5.13470	7.13465	0.0
6.8951	85.2742	-0.10	0.10	0.00	-22.75	7.333	5.13665	7.13735	2.0
6.9151	85.3142	-0.10	0.10	0.00	-22.75	7.333	5.13859	7.14006	0.0
6.9351	85.3542	-0.10	0.10	0.00	-22.75	7.333	5.14054	7.14276	0.0
6.9551	85.3942	-0.10	0.10	0.00	-22.75	7.333	5.14249	7.14547	4.0
6.9751	85.4342	-0.10	0.10	0.00	-22.75	7.333	5.14443	7.14817	0.0
6.9951	85.4742	-0.10	0.10	0.00	-22.75	7.333	5.14638	7.15087	2.0
7.0151	85.5142	-0.10	0.10	0.00	-22.75	7.333	5.14832	7.15357	0.0
7.0351	85.5542	-0.10	0.10	0.00	-22.75	7.333	5.15026	7.15627	0.0
7.0551	85.5942	-0.10	0.10	0.00	-22.75	7.333	5.15221	7.15897	2.0
7.0751	85.6342	-0.10	0.10	0.00	-22.75	7.333	5.15415	7.16167	2.0
7.0951	85.6742	-0.10	0.10	0.00	-22.75	7.333	5.15609	7.16437	0.0
7.1151	85.7142	-0.10	0.10	0.00	-22.75	7.333	5.15803	7.16707	2.0
7.1351	85.7542	-0.10	0.10	0.00	-22.75	7.333	5.15997	7.16976	2.0
7.1551	85.7942	-0.10	0.10	0.00	-22.75	7.333	5.16191	7.17246	0.0
7.1751	85.8342	-0.10	0.10	0.00	-22.75	7.333	5.16385	7.17515	2.0
7.1951	85.8742	-0.10	0.10	0.00	-22.75	7.333	5.16579	7.17784	2.0
7.2151	85.9142	-0.10	0.10	0.00	-22.75	7.333	5.16773	7.18054	2.0
7.2351	85.9542	-0.10	0.10	0.00	-22.75	7.333	5.16966	7.18323	8.0
7.2551	85.9942	-0.10	0.10	0.00	-22.75	7.333	5.17160	7.18592	2.0
7.2751	86.0342	-0.10	0.10	0.00	-22.75	7.333	5.17353	7.18861	4.0
7.2951	86.0742	-0.10	0.10	0.00	-22.75	7.333	5.17547	7.19130	2.0
7.3151	86.1142	-0.10	0.10	0.00	-22.75	7.333	5.17740	7.19399	4.0
7.3351	86.1542	-0.10	0.10	0.00	-22.75	7.333	5.17934	7.19667	0.0
7.3551	86.1942	-0.10	0.10	0.00	-22.75	7.333	5.18127	7.19936	0.0
7.3751	86.2342	-0.10	0.10	0.00	-22.75	7.333	5.18320	7.20204	2.0
7.3951	86.2742	-0.10	0.10	0.00	-22.75	7.333	5.18514	7.20473	2.0
7.4151	86.3142	-0.10	0.10	0.00	-22.75	7.333	5.18707	7.20741	4.0
7.4351	86.3542	-0.10	0.10	0.00	-22.75	7.333	5.18900	7.21010	0.0
7.4551	86.3942	-0.10	0.10	0.00	-22.75	7.333	5.19093	7.21278	4.0
7.4751	86.4342	-0.10	0.10	0.00	-22.75	7.333	5.19286	7.21546	4.0
7.4951	86.4742	-0.10	0.10	0.00	-22.75	7.333	5.19479	7.21814	6.0
7.5151	86.5142	-0.10	0.10	0.00	-22.75	7.333	5.19671	7.22082	0.0
7.5351	86.5542	-0.10	0.10	0.00	-22.75	7.333	5.19864	7.22350	2.0
7.5551	86.5942	-0.10	0.10	0.00	-22.75	7.333	5.20057	7.22617	2.0
7.5751	86.6342	-0.10	0.10	0.00	-22.75	7.333	5.20249	7.22885	0.0
7.5951	86.6742	-0.10	0.10	0.00	-22.75	7.333	5.20442	7.23153	0.0
7.6151	86.7142	-0.10	0.10	0.00	-22.75	7.333	5.20635	7.23420	4.0
7.6351	86.7542	-0.10	0.10	0.00	-22.75	7.333	5.20827	7.23687	0.0
7.6551	86.7942	-0.10	0.10	0.00	-22.75	7.333	5.21019	7.23955	2.0
7.6751	86.8342	-0.10	0.10	0.00	-22.75	7.333	5.21212	7.24222	2.0
7.6951	86.8742	-0.10	0.10	0.00	-22.75	7.333	5.21404	7.24489	2.0
7.7151	86.9142	-0.10	0.10	0.00	-22.75	7.333	5.21596	7.24756	0.0
7.7351	86.9542	-0.10	0.10	0.00	-22.75	7.333	5.21788	7.25023	2.0
7.7551	86.9942	-0.10	0.10	0.00	-22.75	7.333	5.21980	7.25290	0.0
7.7751	87.0342	-0.10	0.10	0.00	-22.75	7.333	5.22172	7.25557	0.0
7.7951	87.0742	-0.10	0.10	0.00	-22.75	7.333	5.22364	7.25823	4.0
7.8151	87.1142	-0.10	0.10	0.00	-22.75	7.333	5.22556	7.26090	0.0
7.8351	87.1542	-0.10	0.10	0.00	-22.75	7.333	5.22748	7.26356	0.0
7.8551	87.1942	-0.10	0.10	0.00	-22.75	7.333	5.22940	7.26623	0.0
7.8751	87.2342	-0.10	0.10	0.00	-22.75	7.333	5.23131	7.26889	0.0
7.8951	87.2742	-0.10	0.10	0.00	-22.75	7.333	5.23323	7.27155	0.0
7.9151	87.3142	-0.10	0.10	0.00	-22.75	7.333	5.23514	7.27422	0.0
7.9351	87.3542	-0.10	0.10	0.00	-22.75	7.333	5.23706	7.27688	0.0
7.9551	87.3942	-0.10	0.10	0.00	-22.75	7.333	5.23897	7.27954	4.0
7.9751	87.4342	-0.10	0.10	0.00	-22.75	7.333	5.24089	7.28220	2.0
7.9951	87.4742	-0.10	0.10	0.00	-22.75	7.333	5.24280	7.28485	2.0
8.0151	87.5142	-0.10	0.10	0.00	-22.75	7.333	5.24471	7.28751	0.0
8.0351	87.5542	-0.10	0.10	0.00	-22.75	7.333	5.24662	7.29017	0.0
8.0551	87.5942	-0.10	0.10	0.00	-22.75	7.333	5.24853	7.29282	2.0
8.0751	87.6342	-0.10	0.10	0.00	-22.75	7.333	5.25044	7.29548	6.0
8.0951	87.6742	-0.10	0.10	0.00	-22.75	7.333	5.25235	7.29813	2.0
8.1151	87.7142	-0.10	0.10	0.00	-22.75	7.333	5.25426	7.30078	2.0
8.1351	87.7542	-0.10	0.10	0.00	-22.75	7.333	5.25617	7.30343	4.0
8.1551	87.7942	-0.10	0.10	0.00	-22.75	7.333	5.25808	7.30608	0.0
8.1751	87.8342	-0.10	0.10	0.00	-22.75	7.333	5.25999	7.30873	2.0
8.1951	87.8742	-0.10	0.10	0.00	-22.75	7.333	5.26189	7.31138	0.0
8.2151	87.9142	-0.10	0.10	0.00	-22.75	7.333	5.26380	7.31403	0.0
8.2351	87.9542	-0.10	0.10	0.00	-22.75	7.333	5.26570	7.31668	0.0
8.2551	87.9942	-0.10	0.10	0.00	-22.75	7.333	5.26761	7.31933	2.0
8.2751	88.0342	-0.10	0.10	0.00	-22.75	7.333	5.26951	7.32197	2.0
8.2951	88.0742	-0.10	0.10	0.00	-22.75	7.333	5.27142	7.32462	0.0
8.3151	88.1142	-0.10	0.10	0.00	-22.75	7.333	5.27332	7.32726	0.0
8.3351	88.1542	-0.10	0.10	0.00	-22.75	7.333	5.27522	7.32990	0.0
8.3551	88.1942	-0.10	0.10	0.00	-22.75	7.333	5.27712	7.33254	4.0
8.3751	88.2342	-0.10	0.10	0.00	-22.75	7.333	5.27902	7.33519	0.0
8.3951	88.2742	-0.10	0.10	0.00	-22.75	7.333	5.28092	7.33783	0.0
8.4151	88.3142	-0.10	0.10	0.00	-22.75	7.333	5.28282	7.34047	10.0
8.4351	88.3542	-0.10	0.10	0.00	-22.75	7.333	5.28472	7.34310	2.0
8.4551	88.3942	-0.10	0.10	0.00	-22.75	7.333	5.28662	7.34574	2.0
8.4751	88.4342	-0.10	0.10	0.00	-22.75	7.333	5.28852	7.34838	0.0
8.4951	88.4742	-0.10	0.10	0.00	-22.75	7.333	5.29041	7.35101	2.0
8.5151	88.5142	-0.10	0.10	0.00	-22.75	7.333	5.29231	7.35365	2.0
8.5351	88.5542	-0.10	0.10	0.00	-22.75	7.333	5.29421	7.35628	0.0
8.5551	88.5942	-0.10	0.10	0.00	-22.75	7.333	5.29610	7.35892	0.0
8.5751	88.6342	-0.10	0.10	0.00	-22.75	7.333	5.29800	7.36155	0.0
8.5951	88.6742	-0.10	0.10	0.00	-22.75	7.333	5.29989	7.36418	0.0
8.6151	88.7142	-0.10	0.10	0.00	-22.75	7.333	5.30178	7.36681	0.0
8.6351	88.7542	-0.10	0.10	0.00	-22.75	7.333	5.30367	7.36944	0.0
8.6551	88.7942	-0.10	0.10	0.00	-22.75	7.333	5.30557	7.37207	0.0
8.6751	88.8342	-0.10	0.10	0.00	-22.75	7.333	5.30746	7.37469	0.0
8.6951	88.8742	-0.10	0.10	0.00	-22.75	7.333	5.30935	7.37732	0.0
8.7151	88.9142	-0.10	0.10	0.00	-22.75	7.333	5.31124	7.37995	6.0
8.7351	88.9542	-0.10	0.10	0.00	-22.75	7.333	5.31313	7.38257	2.0
8.7551	88.9942	-0.10	0.10	0.00	-22.75	7.333	5.31501	7.38520	2.0
8.7751	89.0342	-0.10	0.10	0.00	-22.75	7.333	5.31690	7.38782	0.0

6.8151	85.0742	-0.10	0.10	0.00	-22.75	7.333	5.12442	7.12560	2.0
6.8351	85.1142	-0.10	0.10	0.00	-22.75	7.333	5.12636	7.12831	0.0
6.8551	85.1542	-0.10	0.10	0.00	-22.75	7.333	5.12831	7.13102	0.0
6.8751	85.1942	-0.10	0.10	0.00	-22.75	7.333	5.13026	7.13373	2.0
6.8951	85.2342	-0.10	0.10	0.00	-22.75	7.333	5.13221	7.13644	2.0
6.9151	85.2742	-0.10	0.10	0.00	-22.75	7.333	5.13416	7.13915	0.0
6.9351	85.3142	-0.10	0.10	0.00	-22.75	7.333	5.13610	7.14185	2.0
6.9551	85.3542	-0.10	0.10	0.00	-22.75	7.333	5.13805	7.14456	2.0
6.9751	85.3942	-0.10	0.10	0.00	-22.75	7.333	5.13999	7.14726	0.0
[...]
9.6751	86.8342	-0.10	0.10	0.00	-22.75	7.333	4.95619	7.41971	0.0
9.6951	86.8742	-0.10	0.10	0.00	-22.75	7.333	4.95802	7.42244	2.0
9.7151	86.9142	-0.10	0.10	0.00	-22.75	7.333	4.95985	7.42518	2.0
9.7351	86.9542	-0.10	0.10	0.00	-22.75	7.333	4.96167	7.42791	0.0
9.7551	86.9942	-0.10	0.10	0.00	-22.75	7.333	4.96350	7.43065	0.0
9.7751	87.0342	-0.10	0.10	0.00	-22.75	7.333	4.96533	7.43338	4.0
9.7951	87.0742	-0.10	0.10	0.00	-22.75	7.333	4.96715	7.43611	0.0
9.8151	87.1142	-0.10	0.10	0.00	-22.75	7.333	4.96898	7.43885	0.0
9.8351	87.1542	-0.10	0.10	0.00	-22.75	7.333	4.97080	7.44158	4.0
9.8551	87.1942	-0.10	0.10	0.00	-22.75	7.333	4.97262	7.44431	0.0
9.8751	87.2342	-0.10	0.10	0.00	-22.75	7.333	4.97445	7.44703	0.0
9.8951	87.2742	-0.10	0.10	0.00	-22.75	7.333	4.97627	7.44976	2.0
9.9151	87.3142	-0.10	0.10	0.00	-22.75	7.333	4.97809	7.45249	8.0
9.9351	87.3542	-0.10	0.10	0.00	-22.75	7.333	4.97991	7.45521	6.0
9.9551	87.3942	-0.10	0.10	0.00	-22.75	7.333	4.98173	7.45794	4.0
9.9751	87.4342	-0.10	0.10	0.00	-22.75	7.333	4.98355	7.46066	0.0
9.9951	87.4742	-0.10	0.10	0.00	-22.75	7.333	4.98537	7.46339	4.0
10.0151	87.5142	-0.10	0.10	0.00	-22.75	7.333	4.98719	7.46611	4.0
10.0351	87.5542	-0.10	0.10	0.00	-22.75	7.333	4.98900	7.46883	4.0
10.0551	87.5942	-0.10	0.10	0.00	-22.75	7.333	4.99082	7.47155	2.0
10.0751	87.6342	-0.10	0.10	0.00	-22.75	7.333	4.99264	7.47427	0.0
10.0951	87.6742	-0.10	0.10	0.00	-22.75	7.333	4.99445	7.47699	2.0
10.1151	87.7142	-0.10	0.10	0.00	-22.75	7.333	4.99627	7.47971	0.0
10.1351	87.7542	-0.10	0.10	0.00	-22.75	7.333	4.99808	7.48242	0.0
10.1551	87.7942	-0.10	0.10	0.00	-22.75	7.333	4.99990	7.48514	4.0
10.1751	87.8342	-0.10	0.10	0.00	-22.75	7.333	5.00171	7.48785	0.0
10.1951	87.8742	-0.10	0.10	0.00	-22.75	7.333	5.00352	7.49057	4.0
10.2151	87.9142	-0.10	0.10	0.00	-22.75	7.333	5.00534	7.49328	2.0
10.2351	87.9542	-0.10	0.10	0.00	-22.75	7.333	5.00715	7.49599	6.0
10.2551	87.9942	-0.10	0.10	0.00	-22.75	7.333	5.00896	7.49870	0.0
10.2751	88.0342	-0.10	0.10	0.00	-22.75	7.333	5.01077	7.50141	4.0
10.2951	88.0742	-0.10	0.10	0.00	-22.75	7.333	5.01258	7.50412	2.0
10.3151	88.1142	-0.10	0.10	0.00	-22.75	7.333	5.01439	7.50683	0.0
10.3351	88.1542	-0.10	0.10	0.00	-22.75	7.333	5.01620	7.50954	0.0
10.3551	88.1942	-0.10	0.10	0.00	-22.75	7.333	5.01801	7.51225	2.0
10.3751	88.2342	-0.10	0.10	0.00	-22.75	7.333	5.01981	7.51495	0.0
10.3951	88.2742	-0.10	0.10	0.00	-22.75	7.333	5.02162	7.51766	4.0
10.4151	88.3142	-0.10	0.10	0.00	-22.75	7.333	5.02343	7.52036	2.0
10.4351	88.3542	-0.10	0.10	0.00	-22.75	7.333	5.02523	7.52306	4.0
10.4551	88.3942	-0.10	0.10	0.00	-22.75	7.333	5.02704	7.52577	0.0
10.4751	88.4342	-0.10	0.10	0.00	-22.75	7.333	5.02884	7.52847	0.0
10.4951	88.4742	-0.10	0.10	0.00	-22.75	7.333	5.03064	7.53117	0.0
10.5151	88.5142	-0.10	0.10	0.00	-22.75	7.333	5.03245	7.53387	0.0
10.5351	88.5542	-0.10	0.10	0.00	-22.75	7.333	5.03425	7.53657	0.0
10.5551	88.5942	-0.10	0.10	0.00	-22.75	7.333	5.03605	7.53926	4.0
10.5751	88.6342	-0.10	0.10	0.00	-22.75	7.333	5.03785	7.54196	2.0
10.5951	88.6742	-0.10	0.10	0.00	-22.75	7.333	5.03965	7.54466	0.0
10.6151	88.7142	-0.10	0.10	0.00	-22.75	7.333	5.04145	7.54735	0.0
10.6351	88.7542	-0.10	0.10	0.00	-22.75	7.333	5.04325	7.55004	2.0
10.6551	88.7942	-0.10	0.10	0.00	-22.75	7.333	5.04505	7.55274	0.0
10.6751	88.8342	-0.10	0.10	0.00	-22.75	7.333	5.04685	7.55543	2.0
10.6951	88.8742	-0.10	0.10	0.00	-22.75	7.333	5.04865	7.55812	4.0
10.7151	88.9142	-0.10	0.10	0.00	-22.75	7.333	5.05045	7.56081	4.0
10.7351	88.9542	-0.10	0.10	0.00	-22.75	7.333	5.05224	7.56350	2.0
10.7551	88.9942	-0.10	0.10	0.00	-22.75	7.333	5.05404	7.56619	0.0
10.7751	89.0342	-0.10	0.10	0.00	-22.75	7.333	5.05583	7.56888	6.0