Folder: Thesis_XRD/Data/113xx (part 2)

File: 2.0deg-2.0deg-rsm-3h10mins_11355-annealed_224.dat
# filename: /home/lepecvd/lepecvd/11355/xray/2.0deg-2.0deg-rsm-3h10m_11355-E4_224.xrdml
# reflection: ('2', '2', '4')
# type: Area measurement
# x-axis: Omega_2Theta
# y-axis: Omega
#
# Omega	2Theta	Phi  	Chi   	X    	Y    	Z    	q_para	q_perp	Intensity
# [deg]	[deg] 	[deg]	[deg] 	[mm] 	[mm] 	[mm] 	[nm-1]	[nm-1]	[counts/s]
6.6828	84.9998	-0.70	0.35	0.00	15.50	7.376	5.13260	7.11205	0.0
6.7028	85.0398	-0.70	0.35	0.00	15.50	7.376	5.13456	7.11476	0.0
6.7228	85.0798	-0.70	0.35	0.00	15.50	7.376	5.13651	7.11747	0.0
6.7428	85.1198	-0.70	0.35	0.00	15.50	7.376	5.13846	7.12017	0.0
6.7628	85.1598	-0.70	0.35	0.00	15.50	7.376	5.14042	7.12288	0.0
6.7828	85.1998	-0.70	0.35	0.00	15.50	7.376	5.14237	7.12559	0.0
6.8028	85.2398	-0.70	0.35	0.00	15.50	7.376	5.14432	7.12829	0.0
6.8228	85.2798	-0.70	0.35	0.00	15.50	7.376	5.14627	7.13099	4.0
6.8428	85.3198	-0.70	0.35	0.00	15.50	7.376	5.14822	7.13370	0.0
6.8628	85.3598	-0.70	0.35	0.00	15.50	7.376	5.15017	7.13640	0.0
6.8828	85.3998	-0.70	0.35	0.00	15.50	7.376	5.15212	7.13910	4.0
6.9028	85.4398	-0.70	0.35	0.00	15.50	7.376	5.15407	7.14180	2.0
6.9228	85.4798	-0.70	0.35	0.00	15.50	7.376	5.15602	7.14450	2.0
6.9428	85.5198	-0.70	0.35	0.00	15.50	7.376	5.15797	7.14720	0.0
6.9628	85.5598	-0.70	0.35	0.00	15.50	7.376	5.15991	7.14990	2.0
6.9828	85.5998	-0.70	0.35	0.00	15.50	7.376	5.16186	7.15259	0.0
7.0028	85.6398	-0.70	0.35	0.00	15.50	7.376	5.16380	7.15529	0.0
7.0228	85.6798	-0.70	0.35	0.00	15.50	7.376	5.16575	7.15798	0.0
7.0428	85.7198	-0.70	0.35	0.00	15.50	7.376	5.16769	7.16068	0.0
7.0628	85.7598	-0.70	0.35	0.00	15.50	7.376	5.16964	7.16337	4.0
7.0828	85.7998	-0.70	0.35	0.00	15.50	7.376	5.17158	7.16606	0.0
7.1028	85.8398	-0.70	0.35	0.00	15.50	7.376	5.17352	7.16875	0.0
7.1228	85.8798	-0.70	0.35	0.00	15.50	7.376	5.17546	7.17144	0.0
7.1428	85.9198	-0.70	0.35	0.00	15.50	7.376	5.17740	7.17413	0.0
7.1628	85.9598	-0.70	0.35	0.00	15.50	7.376	5.17934	7.17682	2.0
7.1828	85.9998	-0.70	0.35	0.00	15.50	7.376	5.18128	7.17951	2.0
7.2028	86.0398	-0.70	0.35	0.00	15.50	7.376	5.18322	7.18220	0.0
7.2228	86.0798	-0.70	0.35	0.00	15.50	7.376	5.18516	7.18488	2.0
7.2428	86.1198	-0.70	0.35	0.00	15.50	7.376	5.18710	7.18757	2.0
7.2628	86.1598	-0.70	0.35	0.00	15.50	7.376	5.18904	7.19025	0.0
7.2828	86.1998	-0.70	0.35	0.00	15.50	7.376	5.19097	7.19294	0.0
7.3028	86.2398	-0.70	0.35	0.00	15.50	7.376	5.19291	7.19562	4.0
7.3228	86.2798	-0.70	0.35	0.00	15.50	7.376	5.19485	7.19830	0.0
7.3428	86.3198	-0.70	0.35	0.00	15.50	7.376	5.19678	7.20098	0.0
7.3628	86.3598	-0.70	0.35	0.00	15.50	7.376	5.19871	7.20366	2.0
7.3828	86.3998	-0.70	0.35	0.00	15.50	7.376	5.20065	7.20634	0.0
7.4028	86.4398	-0.70	0.35	0.00	15.50	7.376	5.20258	7.20902	2.0
7.4228	86.4798	-0.70	0.35	0.00	15.50	7.376	5.20451	7.21170	4.0
7.4428	86.5198	-0.70	0.35	0.00	15.50	7.376	5.20644	7.21437	2.0
7.4628	86.5598	-0.70	0.35	0.00	15.50	7.376	5.20838	7.21705	0.0
7.4828	86.5998	-0.70	0.35	0.00	15.50	7.376	5.21031	7.21972	0.0
7.5028	86.6398	-0.70	0.35	0.00	15.50	7.376	5.21224	7.22240	2.0
7.5228	86.6798	-0.70	0.35	0.00	15.50	7.376	5.21416	7.22507	2.0
7.5428	86.7198	-0.70	0.35	0.00	15.50	7.376	5.21609	7.22774	2.0
7.5628	86.7598	-0.70	0.35	0.00	15.50	7.376	5.21802	7.23041	0.0
7.5828	86.7998	-0.70	0.35	0.00	15.50	7.376	5.21995	7.23309	0.0
7.6028	86.8398	-0.70	0.35	0.00	15.50	7.376	5.22187	7.23575	2.0
7.6228	86.8798	-0.70	0.35	0.00	15.50	7.376	5.22380	7.23842	6.0
7.6428	86.9198	-0.70	0.35	0.00	15.50	7.376	5.22573	7.24109	0.0
7.6628	86.9598	-0.70	0.35	0.00	15.50	7.376	5.22765	7.24376	0.0
7.6828	86.9998	-0.70	0.35	0.00	15.50	7.376	5.22957	7.24642	0.0
7.7028	87.0398	-0.70	0.35	0.00	15.50	7.376	5.23150	7.24909	0.0
7.7228	87.0798	-0.70	0.35	0.00	15.50	7.376	5.23342	7.25175	0.0
7.7428	87.1198	-0.70	0.35	0.00	15.50	7.376	5.23534	7.25442	0.0
7.7628	87.1598	-0.70	0.35	0.00	15.50	7.376	5.23726	7.25708	0.0
7.7828	87.1998	-0.70	0.35	0.00	15.50	7.376	5.23918	7.25974	2.0
7.8028	87.2398	-0.70	0.35	0.00	15.50	7.376	5.24110	7.26240	2.0
7.8228	87.2798	-0.70	0.35	0.00	15.50	7.376	5.24302	7.26506	4.0
7.8428	87.3198	-0.70	0.35	0.00	15.50	7.376	5.24494	7.26772	0.0
7.8628	87.3598	-0.70	0.35	0.00	15.50	7.376	5.24686	7.27038	0.0
7.8828	87.3998	-0.70	0.35	0.00	15.50	7.376	5.24878	7.27303	2.0
7.9028	87.4398	-0.70	0.35	0.00	15.50	7.376	5.25070	7.27569	0.0
7.9228	87.4798	-0.70	0.35	0.00	15.50	7.376	5.25261	7.27835	0.0
7.9428	87.5198	-0.70	0.35	0.00	15.50	7.376	5.25453	7.28100	0.0
7.9628	87.5598	-0.70	0.35	0.00	15.50	7.376	5.25644	7.28365	0.0
7.9828	87.5998	-0.70	0.35	0.00	15.50	7.376	5.25836	7.28631	0.0
8.0028	87.6398	-0.70	0.35	0.00	15.50	7.376	5.26027	7.28896	0.0
8.0228	87.6798	-0.70	0.35	0.00	15.50	7.376	5.26218	7.29161	2.0
8.0428	87.7198	-0.70	0.35	0.00	15.50	7.376	5.26410	7.29426	2.0
8.0628	87.7598	-0.70	0.35	0.00	15.50	7.376	5.26601	7.29691	0.0
8.0828	87.7998	-0.70	0.35	0.00	15.50	7.376	5.26792	7.29956	0.0
8.1028	87.8398	-0.70	0.35	0.00	15.50	7.376	5.26983	7.30220	2.0
8.1228	87.8798	-0.70	0.35	0.00	15.50	7.376	5.27174	7.30485	2.0
8.1428	87.9198	-0.70	0.35	0.00	15.50	7.376	5.27365	7.30750	2.0
8.1628	87.9598	-0.70	0.35	0.00	15.50	7.376	5.27556	7.31014	2.0
8.1828	87.9998	-0.70	0.35	0.00	15.50	7.376	5.27747	7.31279	4.0
8.2028	88.0398	-0.70	0.35	0.00	15.50	7.376	5.27937	7.31543	0.0
8.2228	88.0798	-0.70	0.35	0.00	15.50	7.376	5.28128	7.31807	2.0
8.2428	88.1198	-0.70	0.35	0.00	15.50	7.376	5.28319	7.32071	0.0
8.2628	88.1598	-0.70	0.35	0.00	15.50	7.376	5.28509	7.32335	6.0
8.2828	88.1998	-0.70	0.35	0.00	15.50	7.376	5.28700	7.32599	4.0
8.3028	88.2398	-0.70	0.35	0.00	15.50	7.376	5.28890	7.32863	0.0
8.3228	88.2798	-0.70	0.35	0.00	15.50	7.376	5.29080	7.33127	0.0
8.3428	88.3198	-0.70	0.35	0.00	15.50	7.376	5.29271	7.33390	2.0
8.3628	88.3598	-0.70	0.35	0.00	15.50	7.376	5.29461	7.33654	2.0
8.3828	88.3998	-0.70	0.35	0.00	15.50	7.376	5.29651	7.33917	0.0
8.4028	88.4398	-0.70	0.35	0.00	15.50	7.376	5.29841	7.34181	2.0
8.4228	88.4798	-0.70	0.35	0.00	15.50	7.376	5.30031	7.34444	2.0
8.4428	88.5198	-0.70	0.35	0.00	15.50	7.376	5.30221	7.34707	0.0
8.4628	88.5598	-0.70	0.35	0.00	15.50	7.376	5.30411	7.34970	0.0
8.4828	88.5998	-0.70	0.35	0.00	15.50	7.376	5.30601	7.35234	2.0
8.5028	88.6398	-0.70	0.35	0.00	15.50	7.376	5.30791	7.35496	0.0
8.5228	88.6798	-0.70	0.35	0.00	15.50	7.376	5.30980	7.35759	2.0
8.5428	88.7198	-0.70	0.35	0.00	15.50	7.376	5.31170	7.36022	2.0
8.5628	88.7598	-0.70	0.35	0.00	15.50	7.376	5.31359	7.36285	2.0
8.5828	88.7998	-0.70	0.35	0.00	15.50	7.376	5.31549	7.36547	0.0
8.6028	88.8398	-0.70	0.35	0.00	15.50	7.376	5.31738	7.36810	0.0
8.6228	88.8798	-0.70	0.35	0.00	15.50	7.376	5.31928	7.37072	0.0
8.6428	88.9198	-0.70	0.35	0.00	15.50	7.376	5.32117	7.37335	0.0
8.6628	88.9598	-0.70	0.35	0.00	15.50	7.376	5.32306	7.37597	0.0

6.7028	84.9998	-0.70	0.35	0.00	15.50	7.376	5.13012	7.11384	2.0
6.7228	85.0398	-0.70	0.35	0.00	15.50	7.376	5.13207	7.11655	0.0
6.7428	85.0798	-0.70	0.35	0.00	15.50	7.376	5.13402	7.11926	2.0
6.7628	85.1198	-0.70	0.35	0.00	15.50	7.376	5.13598	7.12197	2.0
6.7828	85.1598	-0.70	0.35	0.00	15.50	7.376	5.13793	7.12467	0.0
6.8028	85.1998	-0.70	0.35	0.00	15.50	7.376	5.13988	7.12738	0.0
6.8228	85.2398	-0.70	0.35	0.00	15.50	7.376	5.14183	7.13009	0.0
6.8428	85.2798	-0.70	0.35	0.00	15.50	7.376	5.14378	7.13279	0.0
6.8628	85.3198	-0.70	0.35	0.00	15.50	7.376	5.14573	7.13549	0.0
6.8828	85.3598	-0.70	0.35	0.00	15.50	7.376	5.14768	7.13820	0.0
6.9028	85.3998	-0.70	0.35	0.00	15.50	7.376	5.14963	7.14090	2.0
[...]
9.5428	86.7198	-0.70	0.35	0.00	15.50	7.376	4.96067	7.40538	2.0
9.5628	86.7598	-0.70	0.35	0.00	15.50	7.376	4.96250	7.40812	2.0
9.5828	86.7998	-0.70	0.35	0.00	15.50	7.376	4.96434	7.41085	4.0
9.6028	86.8398	-0.70	0.35	0.00	15.50	7.376	4.96617	7.41359	2.0
9.6228	86.8798	-0.70	0.35	0.00	15.50	7.376	4.96800	7.41632	2.0
9.6428	86.9198	-0.70	0.35	0.00	15.50	7.376	4.96983	7.41906	2.0
9.6628	86.9598	-0.70	0.35	0.00	15.50	7.376	4.97166	7.42179	0.0
9.6828	86.9998	-0.70	0.35	0.00	15.50	7.376	4.97349	7.42452	0.0
9.7028	87.0398	-0.70	0.35	0.00	15.50	7.376	4.97532	7.42725	0.0
9.7228	87.0798	-0.70	0.35	0.00	15.50	7.376	4.97715	7.42998	2.0
9.7428	87.1198	-0.70	0.35	0.00	15.50	7.376	4.97898	7.43271	0.0
9.7628	87.1598	-0.70	0.35	0.00	15.50	7.376	4.98080	7.43544	0.0
9.7828	87.1998	-0.70	0.35	0.00	15.50	7.376	4.98263	7.43816	0.0
9.8028	87.2398	-0.70	0.35	0.00	15.50	7.376	4.98446	7.44089	0.0
9.8228	87.2798	-0.70	0.35	0.00	15.50	7.376	4.98628	7.44361	6.0
9.8428	87.3198	-0.70	0.35	0.00	15.50	7.376	4.98811	7.44634	2.0
9.8628	87.3598	-0.70	0.35	0.00	15.50	7.376	4.98993	7.44906	4.0
9.8828	87.3998	-0.70	0.35	0.00	15.50	7.376	4.99176	7.45178	0.0
9.9028	87.4398	-0.70	0.35	0.00	15.50	7.376	4.99358	7.45451	0.0
9.9228	87.4798	-0.70	0.35	0.00	15.50	7.376	4.99540	7.45723	0.0
9.9428	87.5198	-0.70	0.35	0.00	15.50	7.376	4.99722	7.45995	0.0
9.9628	87.5598	-0.70	0.35	0.00	15.50	7.376	4.99904	7.46266	2.0
9.9828	87.5998	-0.70	0.35	0.00	15.50	7.376	5.00087	7.46538	2.0
10.0028	87.6398	-0.70	0.35	0.00	15.50	7.376	5.00269	7.46810	4.0
10.0228	87.6798	-0.70	0.35	0.00	15.50	7.376	5.00450	7.47082	0.0
10.0428	87.7198	-0.70	0.35	0.00	15.50	7.376	5.00632	7.47353	0.0
10.0628	87.7598	-0.70	0.35	0.00	15.50	7.376	5.00814	7.47625	2.0
10.0828	87.7998	-0.70	0.35	0.00	15.50	7.376	5.00996	7.47896	0.0
10.1028	87.8398	-0.70	0.35	0.00	15.50	7.376	5.01178	7.48167	4.0
10.1228	87.8798	-0.70	0.35	0.00	15.50	7.376	5.01359	7.48438	4.0
10.1428	87.9198	-0.70	0.35	0.00	15.50	7.376	5.01541	7.48709	2.0
10.1628	87.9598	-0.70	0.35	0.00	15.50	7.376	5.01722	7.48980	0.0
10.1828	87.9998	-0.70	0.35	0.00	15.50	7.376	5.01904	7.49251	0.0
10.2028	88.0398	-0.70	0.35	0.00	15.50	7.376	5.02085	7.49522	2.0
10.2228	88.0798	-0.70	0.35	0.00	15.50	7.376	5.02267	7.49793	0.0
10.2428	88.1198	-0.70	0.35	0.00	15.50	7.376	5.02448	7.50063	0.0
10.2628	88.1598	-0.70	0.35	0.00	15.50	7.376	5.02629	7.50334	0.0
10.2828	88.1998	-0.70	0.35	0.00	15.50	7.376	5.02810	7.50604	2.0
10.3028	88.2398	-0.70	0.35	0.00	15.50	7.376	5.02991	7.50874	2.0
10.3228	88.2798	-0.70	0.35	0.00	15.50	7.376	5.03172	7.51145	0.0
10.3428	88.3198	-0.70	0.35	0.00	15.50	7.376	5.03353	7.51415	0.0
10.3628	88.3598	-0.70	0.35	0.00	15.50	7.376	5.03534	7.51685	2.0
10.3828	88.3998	-0.70	0.35	0.00	15.50	7.376	5.03715	7.51955	0.0
10.4028	88.4398	-0.70	0.35	0.00	15.50	7.376	5.03896	7.52225	0.0
10.4228	88.4798	-0.70	0.35	0.00	15.50	7.376	5.04076	7.52495	4.0
10.4428	88.5198	-0.70	0.35	0.00	15.50	7.376	5.04257	7.52764	2.0
10.4628	88.5598	-0.70	0.35	0.00	15.50	7.376	5.04438	7.53034	0.0
10.4828	88.5998	-0.70	0.35	0.00	15.50	7.376	5.04618	7.53303	0.0
10.5028	88.6398	-0.70	0.35	0.00	15.50	7.376	5.04799	7.53573	2.0
10.5228	88.6798	-0.70	0.35	0.00	15.50	7.376	5.04979	7.53842	4.0
10.5428	88.7198	-0.70	0.35	0.00	15.50	7.376	5.05159	7.54111	0.0
10.5628	88.7598	-0.70	0.35	0.00	15.50	7.376	5.05340	7.54380	0.0
10.5828	88.7998	-0.70	0.35	0.00	15.50	7.376	5.05520	7.54649	2.0
10.6028	88.8398	-0.70	0.35	0.00	15.50	7.376	5.05700	7.54918	4.0
10.6228	88.8798	-0.70	0.35	0.00	15.50	7.376	5.05880	7.55187	0.0
10.6428	88.9198	-0.70	0.35	0.00	15.50	7.376	5.06060	7.55456	2.0
10.6628	88.9598	-0.70	0.35	0.00	15.50	7.376	5.06240	7.55725	4.0

File: 2.0deg-2.0deg-rsm-3h10mins_11355-as-grown_224.dat
# filename: /home/lepecvd/lepecvd/11355/xray/2.0deg-2.0deg-rsm-3h10m_11355-E5_224.xrdml
# reflection: ('2', '2', '4')
# type: Area measurement
# x-axis: Omega_2Theta
# y-axis: Omega
#
# Omega	2Theta	Phi  	Chi   	X    	Y    	Z    	q_para	q_perp	Intensity
# [deg]	[deg] 	[deg]	[deg] 	[mm] 	[mm] 	[mm] 	[nm-1]	[nm-1]	[counts/s]
6.1078	85.0726	0.46	0.10	-30.00	-20.00	7.373	5.21181	7.06177	0.0
6.1278	85.1126	0.46	0.10	-30.00	-20.00	7.373	5.21379	7.06445	2.0
6.1478	85.1526	0.46	0.10	-30.00	-20.00	7.373	5.21577	7.06714	0.0
6.1678	85.1926	0.46	0.10	-30.00	-20.00	7.373	5.21775	7.06982	2.0
6.1878	85.2326	0.46	0.10	-30.00	-20.00	7.373	5.21974	7.07251	0.0
6.2078	85.2726	0.46	0.10	-30.00	-20.00	7.373	5.22172	7.07519	0.0
6.2278	85.3126	0.46	0.10	-30.00	-20.00	7.373	5.22369	7.07787	0.0
6.2478	85.3526	0.46	0.10	-30.00	-20.00	7.373	5.22567	7.08055	2.0
6.2678	85.3926	0.46	0.10	-30.00	-20.00	7.373	5.22765	7.08323	2.0
6.2878	85.4326	0.46	0.10	-30.00	-20.00	7.373	5.22963	7.08591	0.0
6.3078	85.4726	0.46	0.10	-30.00	-20.00	7.373	5.23161	7.08859	0.0
6.3278	85.5126	0.46	0.10	-30.00	-20.00	7.373	5.23358	7.09127	6.0
6.3478	85.5526	0.46	0.10	-30.00	-20.00	7.373	5.23556	7.09395	0.0
6.3678	85.5926	0.46	0.10	-30.00	-20.00	7.373	5.23753	7.09662	2.0
6.3878	85.6326	0.46	0.10	-30.00	-20.00	7.373	5.23951	7.09930	2.0
6.4078	85.6726	0.46	0.10	-30.00	-20.00	7.373	5.24148	7.10197	0.0
6.4278	85.7126	0.46	0.10	-30.00	-20.00	7.373	5.24345	7.10464	4.0
6.4478	85.7526	0.46	0.10	-30.00	-20.00	7.373	5.24543	7.10732	0.0
6.4678	85.7926	0.46	0.10	-30.00	-20.00	7.373	5.24740	7.10999	0.0
6.4878	85.8326	0.46	0.10	-30.00	-20.00	7.373	5.24937	7.11266	2.0
6.5078	85.8726	0.46	0.10	-30.00	-20.00	7.373	5.25134	7.11533	0.0
6.5278	85.9126	0.46	0.10	-30.00	-20.00	7.373	5.25331	7.11800	0.0
6.5478	85.9526	0.46	0.10	-30.00	-20.00	7.373	5.25528	7.12067	2.0
6.5678	85.9926	0.46	0.10	-30.00	-20.00	7.373	5.25725	7.12333	0.0
6.5878	86.0326	0.46	0.10	-30.00	-20.00	7.373	5.25921	7.12600	0.0
6.6078	86.0726	0.46	0.10	-30.00	-20.00	7.373	5.26118	7.12867	0.0
6.6278	86.1126	0.46	0.10	-30.00	-20.00	7.373	5.26315	7.13133	0.0
6.6478	86.1526	0.46	0.10	-30.00	-20.00	7.373	5.26511	7.13399	0.0
6.6678	86.1926	0.46	0.10	-30.00	-20.00	7.373	5.26708	7.13666	0.0
6.6878	86.2326	0.46	0.10	-30.00	-20.00	7.373	5.26904	7.13932	2.0
6.7078	86.2726	0.46	0.10	-30.00	-20.00	7.373	5.27101	7.14198	4.0
6.7278	86.3126	0.46	0.10	-30.00	-20.00	7.373	5.27297	7.14464	4.0
6.7478	86.3526	0.46	0.10	-30.00	-20.00	7.373	5.27493	7.14730	0.0
6.7678	86.3926	0.46	0.10	-30.00	-20.00	7.373	5.27690	7.14996	4.0
6.7878	86.4326	0.46	0.10	-30.00	-20.00	7.373	5.27886	7.15262	0.0
6.8078	86.4726	0.46	0.10	-30.00	-20.00	7.373	5.28082	7.15527	6.0
6.8278	86.5126	0.46	0.10	-30.00	-20.00	7.373	5.28278	7.15793	0.0
6.8478	86.5526	0.46	0.10	-30.00	-20.00	7.373	5.28474	7.16058	2.0
6.8678	86.5926	0.46	0.10	-30.00	-20.00	7.373	5.28670	7.16324	0.0
6.8878	86.6326	0.46	0.10	-30.00	-20.00	7.373	5.28865	7.16589	4.0
6.9078	86.6726	0.46	0.10	-30.00	-20.00	7.373	5.29061	7.16854	0.0
6.9278	86.7126	0.46	0.10	-30.00	-20.00	7.373	5.29257	7.17120	0.0
6.9478	86.7526	0.46	0.10	-30.00	-20.00	7.373	5.29453	7.17385	2.0
6.9678	86.7926	0.46	0.10	-30.00	-20.00	7.373	5.29648	7.17650	0.0
6.9878	86.8326	0.46	0.10	-30.00	-20.00	7.373	5.29844	7.17914	2.0
7.0078	86.8726	0.46	0.10	-30.00	-20.00	7.373	5.30039	7.18179	6.0
7.0278	86.9126	0.46	0.10	-30.00	-20.00	7.373	5.30234	7.18444	0.0
7.0478	86.9526	0.46	0.10	-30.00	-20.00	7.373	5.30430	7.18709	0.0
7.0678	86.9926	0.46	0.10	-30.00	-20.00	7.373	5.30625	7.18973	2.0
7.0878	87.0326	0.46	0.10	-30.00	-20.00	7.373	5.30820	7.19238	0.0
7.1078	87.0726	0.46	0.10	-30.00	-20.00	7.373	5.31015	7.19502	2.0
7.1278	87.1126	0.46	0.10	-30.00	-20.00	7.373	5.31210	7.19766	0.0
7.1478	87.1526	0.46	0.10	-30.00	-20.00	7.373	5.31405	7.20030	4.0
7.1678	87.1926	0.46	0.10	-30.00	-20.00	7.373	5.31600	7.20295	0.0
7.1878	87.2326	0.46	0.10	-30.00	-20.00	7.373	5.31795	7.20559	0.0
7.2078	87.2726	0.46	0.10	-30.00	-20.00	7.373	5.31990	7.20823	0.0
7.2278	87.3126	0.46	0.10	-30.00	-20.00	7.373	5.32185	7.21086	4.0
7.2478	87.3526	0.46	0.10	-30.00	-20.00	7.373	5.32379	7.21350	0.0
7.2678	87.3926	0.46	0.10	-30.00	-20.00	7.373	5.32574	7.21614	2.0
7.2878	87.4326	0.46	0.10	-30.00	-20.00	7.373	5.32768	7.21877	0.0
7.3078	87.4726	0.46	0.10	-30.00	-20.00	7.373	5.32963	7.22141	2.0
7.3278	87.5126	0.46	0.10	-30.00	-20.00	7.373	5.33157	7.22404	2.0
7.3478	87.5526	0.46	0.10	-30.00	-20.00	7.373	5.33352	7.22668	2.0
7.3678	87.5926	0.46	0.10	-30.00	-20.00	7.373	5.33546	7.22931	2.0
7.3878	87.6326	0.46	0.10	-30.00	-20.00	7.373	5.33740	7.23194	2.0
7.4078	87.6726	0.46	0.10	-30.00	-20.00	7.373	5.33934	7.23457	2.0
7.4278	87.7126	0.46	0.10	-30.00	-20.00	7.373	5.34128	7.23720	0.0
7.4478	87.7526	0.46	0.10	-30.00	-20.00	7.373	5.34322	7.23983	0.0
7.4678	87.7926	0.46	0.10	-30.00	-20.00	7.373	5.34516	7.24246	0.0
7.4878	87.8326	0.46	0.10	-30.00	-20.00	7.373	5.34710	7.24508	0.0
7.5078	87.8726	0.46	0.10	-30.00	-20.00	7.373	5.34904	7.24771	2.0
7.5278	87.9126	0.46	0.10	-30.00	-20.00	7.373	5.35098	7.25033	0.0
7.5478	87.9526	0.46	0.10	-30.00	-20.00	7.373	5.35291	7.25296	2.0
7.5678	87.9926	0.46	0.10	-30.00	-20.00	7.373	5.35485	7.25558	2.0
7.5878	88.0326	0.46	0.10	-30.00	-20.00	7.373	5.35678	7.25820	2.0
7.6078	88.0726	0.46	0.10	-30.00	-20.00	7.373	5.35872	7.26083	0.0
7.6278	88.1126	0.46	0.10	-30.00	-20.00	7.373	5.36065	7.26345	2.0
7.6478	88.1526	0.46	0.10	-30.00	-20.00	7.373	5.36259	7.26607	0.0
7.6678	88.1926	0.46	0.10	-30.00	-20.00	7.373	5.36452	7.26869	2.0
7.6878	88.2326	0.46	0.10	-30.00	-20.00	7.373	5.36645	7.27130	0.0
7.7078	88.2726	0.46	0.10	-30.00	-20.00	7.373	5.36838	7.27392	0.0
7.7278	88.3126	0.46	0.10	-30.00	-20.00	7.373	5.37032	7.27654	0.0
7.7478	88.3526	0.46	0.10	-30.00	-20.00	7.373	5.37225	7.27915	0.0
7.7678	88.3926	0.46	0.10	-30.00	-20.00	7.373	5.37418	7.28177	2.0
7.7878	88.4326	0.46	0.10	-30.00	-20.00	7.373	5.37610	7.28438	2.0
7.8078	88.4726	0.46	0.10	-30.00	-20.00	7.373	5.37803	7.28699	2.0
7.8278	88.5126	0.46	0.10	-30.00	-20.00	7.373	5.37996	7.28961	0.0
7.8478	88.5526	0.46	0.10	-30.00	-20.00	7.373	5.38189	7.29222	0.0
7.8678	88.5926	0.46	0.10	-30.00	-20.00	7.373	5.38381	7.29483	0.0
7.8878	88.6326	0.46	0.10	-30.00	-20.00	7.373	5.38574	7.29744	8.0
7.9078	88.6726	0.46	0.10	-30.00	-20.00	7.373	5.38766	7.30005	2.0
7.9278	88.7126	0.46	0.10	-30.00	-20.00	7.373	5.38959	7.30265	2.0
7.9478	88.7526	0.46	0.10	-30.00	-20.00	7.373	5.39151	7.30526	0.0
7.9678	88.7926	0.46	0.10	-30.00	-20.00	7.373	5.39344	7.30787	2.0
7.9878	88.8326	0.46	0.10	-30.00	-20.00	7.373	5.39536	7.31047	0.0
8.0078	88.8726	0.46	0.10	-30.00	-20.00	7.373	5.39728	7.31307	0.0
8.0278	88.9126	0.46	0.10	-30.00	-20.00	7.373	5.39920	7.31568	2.0
8.0478	88.9526	0.46	0.10	-30.00	-20.00	7.373	5.40112	7.31828	0.0
8.0678	88.9926	0.46	0.10	-30.00	-20.00	7.373	5.40304	7.32088	2.0
8.0878	89.0326	0.46	0.10	-30.00	-20.00	7.373	5.40496	7.32348	0.0

6.1278	85.0726	0.46	0.10	-30.00	-20.00	7.373	5.20934	7.06359	4.0
6.1478	85.1126	0.46	0.10	-30.00	-20.00	7.373	5.21132	7.06627	0.0
6.1678	85.1526	0.46	0.10	-30.00	-20.00	7.373	5.21331	7.06896	2.0
6.1878	85.1926	0.46	0.10	-30.00	-20.00	7.373	5.21529	7.07165	0.0
6.2078	85.2326	0.46	0.10	-30.00	-20.00	7.373	5.21727	7.07433	4.0
6.2278	85.2726	0.46	0.10	-30.00	-20.00	7.373	5.21924	7.07701	0.0
6.2478	85.3126	0.46	0.10	-30.00	-20.00	7.373	5.22122	7.07970	0.0
[...]
8.9878	86.8326	0.46	0.10	-30.00	-20.00	7.373	5.04466	7.35968	0.0
9.0078	86.8726	0.46	0.10	-30.00	-20.00	7.373	5.04652	7.36240	2.0
9.0278	86.9126	0.46	0.10	-30.00	-20.00	7.373	5.04838	7.36511	0.0
9.0478	86.9526	0.46	0.10	-30.00	-20.00	7.373	5.05024	7.36783	2.0
9.0678	86.9926	0.46	0.10	-30.00	-20.00	7.373	5.05210	7.37054	2.0
9.0878	87.0326	0.46	0.10	-30.00	-20.00	7.373	5.05396	7.37325	2.0
9.1078	87.0726	0.46	0.10	-30.00	-20.00	7.373	5.05582	7.37596	2.0
9.1278	87.1126	0.46	0.10	-30.00	-20.00	7.373	5.05767	7.37867	6.0
9.1478	87.1526	0.46	0.10	-30.00	-20.00	7.373	5.05953	7.38138	0.0
9.1678	87.1926	0.46	0.10	-30.00	-20.00	7.373	5.06138	7.38408	8.0
9.1878	87.2326	0.46	0.10	-30.00	-20.00	7.373	5.06324	7.38679	2.0
9.2078	87.2726	0.46	0.10	-30.00	-20.00	7.373	5.06509	7.38950	4.0
9.2278	87.3126	0.46	0.10	-30.00	-20.00	7.373	5.06695	7.39220	2.0
9.2478	87.3526	0.46	0.10	-30.00	-20.00	7.373	5.06880	7.39490	2.0
9.2678	87.3926	0.46	0.10	-30.00	-20.00	7.373	5.07065	7.39761	2.0
9.2878	87.4326	0.46	0.10	-30.00	-20.00	7.373	5.07251	7.40031	4.0
9.3078	87.4726	0.46	0.10	-30.00	-20.00	7.373	5.07436	7.40301	2.0
9.3278	87.5126	0.46	0.10	-30.00	-20.00	7.373	5.07621	7.40571	2.0
9.3478	87.5526	0.46	0.10	-30.00	-20.00	7.373	5.07806	7.40841	2.0
9.3678	87.5926	0.46	0.10	-30.00	-20.00	7.373	5.07991	7.41111	0.0
9.3878	87.6326	0.46	0.10	-30.00	-20.00	7.373	5.08176	7.41381	4.0
9.4078	87.6726	0.46	0.10	-30.00	-20.00	7.373	5.08361	7.41650	2.0
9.4278	87.7126	0.46	0.10	-30.00	-20.00	7.373	5.08545	7.41920	0.0
9.4478	87.7526	0.46	0.10	-30.00	-20.00	7.373	5.08730	7.42189	0.0
9.4678	87.7926	0.46	0.10	-30.00	-20.00	7.373	5.08915	7.42459	0.0
9.4878	87.8326	0.46	0.10	-30.00	-20.00	7.373	5.09099	7.42728	0.0
9.5078	87.8726	0.46	0.10	-30.00	-20.00	7.373	5.09284	7.42997	2.0
9.5278	87.9126	0.46	0.10	-30.00	-20.00	7.373	5.09468	7.43266	2.0
9.5478	87.9526	0.46	0.10	-30.00	-20.00	7.373	5.09653	7.43535	0.0
9.5678	87.9926	0.46	0.10	-30.00	-20.00	7.373	5.09837	7.43804	4.0
9.5878	88.0326	0.46	0.10	-30.00	-20.00	7.373	5.10021	7.44073	2.0
9.6078	88.0726	0.46	0.10	-30.00	-20.00	7.373	5.10206	7.44342	2.0
9.6278	88.1126	0.46	0.10	-30.00	-20.00	7.373	5.10390	7.44611	2.0
9.6478	88.1526	0.46	0.10	-30.00	-20.00	7.373	5.10574	7.44879	0.0
9.6678	88.1926	0.46	0.10	-30.00	-20.00	7.373	5.10758	7.45148	0.0
9.6878	88.2326	0.46	0.10	-30.00	-20.00	7.373	5.10942	7.45416	0.0
9.7078	88.2726	0.46	0.10	-30.00	-20.00	7.373	5.11126	7.45684	4.0
9.7278	88.3126	0.46	0.10	-30.00	-20.00	7.373	5.11310	7.45953	2.0
9.7478	88.3526	0.46	0.10	-30.00	-20.00	7.373	5.11493	7.46221	4.0
9.7678	88.3926	0.46	0.10	-30.00	-20.00	7.373	5.11677	7.46489	0.0
9.7878	88.4326	0.46	0.10	-30.00	-20.00	7.373	5.11861	7.46757	0.0
9.8078	88.4726	0.46	0.10	-30.00	-20.00	7.373	5.12044	7.47025	0.0
9.8278	88.5126	0.46	0.10	-30.00	-20.00	7.373	5.12228	7.47292	0.0
9.8478	88.5526	0.46	0.10	-30.00	-20.00	7.373	5.12411	7.47560	0.0
9.8678	88.5926	0.46	0.10	-30.00	-20.00	7.373	5.12595	7.47828	2.0
9.8878	88.6326	0.46	0.10	-30.00	-20.00	7.373	5.12778	7.48095	2.0
9.9078	88.6726	0.46	0.10	-30.00	-20.00	7.373	5.12961	7.48363	2.0
9.9278	88.7126	0.46	0.10	-30.00	-20.00	7.373	5.13145	7.48630	4.0
9.9478	88.7526	0.46	0.10	-30.00	-20.00	7.373	5.13328	7.48897	0.0
9.9678	88.7926	0.46	0.10	-30.00	-20.00	7.373	5.13511	7.49164	2.0
9.9878	88.8326	0.46	0.10	-30.00	-20.00	7.373	5.13694	7.49431	0.0
10.0078	88.8726	0.46	0.10	-30.00	-20.00	7.373	5.13877	7.49698	4.0
10.0278	88.9126	0.46	0.10	-30.00	-20.00	7.373	5.14060	7.49965	2.0
10.0478	88.9526	0.46	0.10	-30.00	-20.00	7.373	5.14243	7.50232	0.0
10.0678	88.9926	0.46	0.10	-30.00	-20.00	7.373	5.14425	7.50498	0.0
10.0878	89.0326	0.46	0.10	-30.00	-20.00	7.373	5.14608	7.50765	0.0