Folder: Thesis_XRD/Data/Omega (part 5)

File: 2.0deg-2.0deg-rsm-3h10mins_11358-as-grown_224_w-scans.dat
# filename: 2.0deg-2.0deg-rsm-3h10mins_11358-as-grown_224.dat
# reflection: (004)
# type: rotated into a series of omega scans
# x-axis: Omega_2Theta
#
# Omega	2Theta	Phi  	Chi   	X    	Y    	Z    	q_para	q_perp	Intensity
# [deg]	[deg] 	[deg]	[deg] 	[mm] 	[mm] 	[mm] 	[nm-1]	[nm-1]	[counts/s]
6.0787	85.0734	2.82	0.06	10.00	-20.00	7.326	5.21548	7.05914	0.0
6.0987	85.0734	2.82	0.06	10.00	-20.00	7.326	5.21302	7.06096	0.0
6.1187	85.0734	2.82	0.06	10.00	-20.00	7.326	5.21055	7.06278	4.0
6.1387	85.0734	2.82	0.06	10.00	-20.00	7.326	5.20809	7.06460	4.0
6.1587	85.0734	2.82	0.06	10.00	-20.00	7.326	5.20562	7.06641	0.0
6.1787	85.0734	2.82	0.06	10.00	-20.00	7.326	5.20316	7.06823	2.0
6.1987	85.0734	2.82	0.06	10.00	-20.00	7.326	5.20069	7.07005	0.0
6.2187	85.0734	2.82	0.06	10.00	-20.00	7.326	5.19822	7.07186	0.0
6.2387	85.0734	2.82	0.06	10.00	-20.00	7.326	5.19575	7.07367	4.0
6.2587	85.0734	2.82	0.06	10.00	-20.00	7.326	5.19328	7.07549	0.0
6.2787	85.0734	2.82	0.06	10.00	-20.00	7.326	5.19081	7.07730	4.0
6.2987	85.0734	2.82	0.06	10.00	-20.00	7.326	5.18834	7.07911	2.0
6.3187	85.0734	2.82	0.06	10.00	-20.00	7.326	5.18587	7.08092	0.0
6.3387	85.0734	2.82	0.06	10.00	-20.00	7.326	5.18340	7.08273	0.0
6.3587	85.0734	2.82	0.06	10.00	-20.00	7.326	5.18092	7.08454	2.0
6.3787	85.0734	2.82	0.06	10.00	-20.00	7.326	5.17845	7.08635	0.0
6.3987	85.0734	2.82	0.06	10.00	-20.00	7.326	5.17598	7.08816	0.0
6.4187	85.0734	2.82	0.06	10.00	-20.00	7.326	5.17350	7.08996	0.0
6.4387	85.0734	2.82	0.06	10.00	-20.00	7.326	5.17103	7.09177	0.0
6.4587	85.0734	2.82	0.06	10.00	-20.00	7.326	5.16855	7.09357	4.0
6.4787	85.0734	2.82	0.06	10.00	-20.00	7.326	5.16607	7.09538	2.0
6.4987	85.0734	2.82	0.06	10.00	-20.00	7.326	5.16360	7.09718	0.0
6.5187	85.0734	2.82	0.06	10.00	-20.00	7.326	5.16112	7.09898	4.0
6.5387	85.0734	2.82	0.06	10.00	-20.00	7.326	5.15864	7.10078	6.0
6.5587	85.0734	2.82	0.06	10.00	-20.00	7.326	5.15616	7.10258	0.0
6.5787	85.0734	2.82	0.06	10.00	-20.00	7.326	5.15368	7.10438	0.0
6.5987	85.0734	2.82	0.06	10.00	-20.00	7.326	5.15120	7.10618	0.0
6.6187	85.0734	2.82	0.06	10.00	-20.00	7.326	5.14872	7.10798	2.0
6.6387	85.0734	2.82	0.06	10.00	-20.00	7.326	5.14624	7.10978	4.0
6.6587	85.0734	2.82	0.06	10.00	-20.00	7.326	5.14376	7.11157	2.0
6.6787	85.0734	2.82	0.06	10.00	-20.00	7.326	5.14128	7.11337	2.0
6.6987	85.0734	2.82	0.06	10.00	-20.00	7.326	5.13879	7.11516	0.0
6.7187	85.0734	2.82	0.06	10.00	-20.00	7.326	5.13631	7.11695	2.0
6.7387	85.0734	2.82	0.06	10.00	-20.00	7.326	5.13382	7.11875	2.0
6.7587	85.0734	2.82	0.06	10.00	-20.00	7.326	5.13134	7.12054	0.0
6.7787	85.0734	2.82	0.06	10.00	-20.00	7.326	5.12885	7.12233	4.0
6.7987	85.0734	2.82	0.06	10.00	-20.00	7.326	5.12637	7.12412	2.0
6.8187	85.0734	2.82	0.06	10.00	-20.00	7.326	5.12388	7.12591	4.0
6.8387	85.0734	2.82	0.06	10.00	-20.00	7.326	5.12139	7.12770	0.0
6.8587	85.0734	2.82	0.06	10.00	-20.00	7.326	5.11890	7.12948	0.0
6.8787	85.0734	2.82	0.06	10.00	-20.00	7.326	5.11641	7.13127	2.0
6.8987	85.0734	2.82	0.06	10.00	-20.00	7.326	5.11392	7.13305	2.0
6.9187	85.0734	2.82	0.06	10.00	-20.00	7.326	5.11143	7.13484	0.0
6.9387	85.0734	2.82	0.06	10.00	-20.00	7.326	5.10894	7.13662	0.0
6.9587	85.0734	2.82	0.06	10.00	-20.00	7.326	5.10645	7.13841	4.0
6.9787	85.0734	2.82	0.06	10.00	-20.00	7.326	5.10396	7.14019	2.0
6.9987	85.0734	2.82	0.06	10.00	-20.00	7.326	5.10147	7.14197	0.0
7.0187	85.0734	2.82	0.06	10.00	-20.00	7.326	5.09897	7.14375	2.0
7.0387	85.0734	2.82	0.06	10.00	-20.00	7.326	5.09648	7.14553	0.0
7.0587	85.0734	2.82	0.06	10.00	-20.00	7.326	5.09399	7.14731	2.0
7.0787	85.0734	2.82	0.06	10.00	-20.00	7.326	5.09149	7.14909	4.0
7.0987	85.0734	2.82	0.06	10.00	-20.00	7.326	5.08899	7.15086	0.0
7.1187	85.0734	2.82	0.06	10.00	-20.00	7.326	5.08650	7.15264	0.0
7.1387	85.0734	2.82	0.06	10.00	-20.00	7.326	5.08400	7.15441	0.0
7.1587	85.0734	2.82	0.06	10.00	-20.00	7.326	5.08150	7.15619	0.0
7.1787	85.0734	2.82	0.06	10.00	-20.00	7.326	5.07901	7.15796	0.0
7.1987	85.0734	2.82	0.06	10.00	-20.00	7.326	5.07651	7.15973	2.0
7.2187	85.0734	2.82	0.06	10.00	-20.00	7.326	5.07401	7.16150	2.0
7.2387	85.0734	2.82	0.06	10.00	-20.00	7.326	5.07151	7.16328	2.0
7.2587	85.0734	2.82	0.06	10.00	-20.00	7.326	5.06901	7.16505	0.0
7.2787	85.0734	2.82	0.06	10.00	-20.00	7.326	5.06650	7.16681	2.0
7.2987	85.0734	2.82	0.06	10.00	-20.00	7.326	5.06400	7.16858	2.0
7.3187	85.0734	2.82	0.06	10.00	-20.00	7.326	5.06150	7.17035	2.0
7.3387	85.0734	2.82	0.06	10.00	-20.00	7.326	5.05900	7.17212	2.0
7.3587	85.0734	2.82	0.06	10.00	-20.00	7.326	5.05649	7.17388	0.0
7.3787	85.0734	2.82	0.06	10.00	-20.00	7.326	5.05399	7.17565	2.0
7.3987	85.0734	2.82	0.06	10.00	-20.00	7.326	5.05148	7.17741	0.0
7.4187	85.0734	2.82	0.06	10.00	-20.00	7.326	5.04898	7.17917	0.0
7.4387	85.0734	2.82	0.06	10.00	-20.00	7.326	5.04647	7.18093	2.0
7.4587	85.0734	2.82	0.06	10.00	-20.00	7.326	5.04396	7.18270	0.0
7.4787	85.0734	2.82	0.06	10.00	-20.00	7.326	5.04146	7.18446	2.0
7.4987	85.0734	2.82	0.06	10.00	-20.00	7.326	5.03895	7.18622	2.0
7.5187	85.0734	2.82	0.06	10.00	-20.00	7.326	5.03644	7.18797	0.0
7.5387	85.0734	2.82	0.06	10.00	-20.00	7.326	5.03393	7.18973	2.0
7.5587	85.0734	2.82	0.06	10.00	-20.00	7.326	5.03142	7.19149	0.0
7.5787	85.0734	2.82	0.06	10.00	-20.00	7.326	5.02891	7.19324	4.0
7.5987	85.0734	2.82	0.06	10.00	-20.00	7.326	5.02640	7.19500	2.0
7.6187	85.0734	2.82	0.06	10.00	-20.00	7.326	5.02389	7.19675	0.0
7.6387	85.0734	2.82	0.06	10.00	-20.00	7.326	5.02137	7.19851	2.0
7.6587	85.0734	2.82	0.06	10.00	-20.00	7.326	5.01886	7.20026	0.0
7.6787	85.0734	2.82	0.06	10.00	-20.00	7.326	5.01635	7.20201	0.0
7.6987	85.0734	2.82	0.06	10.00	-20.00	7.326	5.01383	7.20376	0.0
7.7187	85.0734	2.82	0.06	10.00	-20.00	7.326	5.01132	7.20551	0.0
7.7387	85.0734	2.82	0.06	10.00	-20.00	7.326	5.00880	7.20726	0.0
7.7587	85.0734	2.82	0.06	10.00	-20.00	7.326	5.00629	7.20901	0.0
7.7787	85.0734	2.82	0.06	10.00	-20.00	7.326	5.00377	7.21075	2.0
7.7987	85.0734	2.82	0.06	10.00	-20.00	7.326	5.00125	7.21250	0.0
7.8187	85.0734	2.82	0.06	10.00	-20.00	7.326	4.99873	7.21425	0.0
7.8387	85.0734	2.82	0.06	10.00	-20.00	7.326	4.99622	7.21599	2.0
7.8587	85.0734	2.82	0.06	10.00	-20.00	7.326	4.99370	7.21773	0.0
7.8787	85.0734	2.82	0.06	10.00	-20.00	7.326	4.99118	7.21948	0.0
7.8987	85.0734	2.82	0.06	10.00	-20.00	7.326	4.98866	7.22122	2.0
7.9187	85.0734	2.82	0.06	10.00	-20.00	7.326	4.98614	7.22296	0.0
7.9387	85.0734	2.82	0.06	10.00	-20.00	7.326	4.98361	7.22470	0.0
7.9587	85.0734	2.82	0.06	10.00	-20.00	7.326	4.98109	7.22644	0.0
7.9787	85.0734	2.82	0.06	10.00	-20.00	7.326	4.97857	7.22818	2.0
7.9987	85.0734	2.82	0.06	10.00	-20.00	7.326	4.97605	7.22991	0.0
8.0187	85.0734	2.82	0.06	10.00	-20.00	7.326	4.97352	7.23165	2.0
8.0387	85.0734	2.82	0.06	10.00	-20.00	7.326	4.97100	7.23339	2.0
8.0587	85.0734	2.82	0.06	10.00	-20.00	7.326	4.96847	7.23512	2.0
8.0787	85.0734	2.82	0.06	10.00	-20.00	7.326	4.96595	7.23686	2.0

6.0887	85.0934	2.82	0.06	10.00	-20.00	7.326	5.21648	7.06048	2.0
6.1087	85.0934	2.82	0.06	10.00	-20.00	7.326	5.21401	7.06230	0.0
6.1287	85.0934	2.82	0.06	10.00	-20.00	7.326	5.21155	7.06412	2.0
6.1487	85.0934	2.82	0.06	10.00	-20.00	7.326	5.20908	7.06594	0.0
6.1687	85.0934	2.82	0.06	10.00	-20.00	7.326	5.20661	7.06776	2.0
6.1887	85.0934	2.82	0.06	10.00	-20.00	7.326	5.20414	7.06957	0.0
6.2087	85.0934	2.82	0.06	10.00	-20.00	7.326	5.20168	7.07139	2.0
6.2287	85.0934	2.82	0.06	10.00	-20.00	7.326	5.19921	7.07321	0.0
[...]
8.9387	89.0334	2.82	0.06	10.00	-20.00	7.326	5.29570	7.40295	0.0
8.9587	89.0334	2.82	0.06	10.00	-20.00	7.326	5.29311	7.40480	2.0
8.9787	89.0334	2.82	0.06	10.00	-20.00	7.326	5.29053	7.40665	0.0
8.9987	89.0334	2.82	0.06	10.00	-20.00	7.326	5.28794	7.40850	0.0
9.0187	89.0334	2.82	0.06	10.00	-20.00	7.326	5.28536	7.41034	0.0
9.0387	89.0334	2.82	0.06	10.00	-20.00	7.326	5.28277	7.41219	0.0
9.0587	89.0334	2.82	0.06	10.00	-20.00	7.326	5.28018	7.41403	2.0
9.0787	89.0334	2.82	0.06	10.00	-20.00	7.326	5.27759	7.41587	0.0
9.0987	89.0334	2.82	0.06	10.00	-20.00	7.326	5.27500	7.41771	2.0
9.1187	89.0334	2.82	0.06	10.00	-20.00	7.326	5.27241	7.41956	0.0
9.1387	89.0334	2.82	0.06	10.00	-20.00	7.326	5.26982	7.42140	2.0
9.1587	89.0334	2.82	0.06	10.00	-20.00	7.326	5.26723	7.42323	2.0
9.1787	89.0334	2.82	0.06	10.00	-20.00	7.326	5.26464	7.42507	2.0
9.1987	89.0334	2.82	0.06	10.00	-20.00	7.326	5.26205	7.42691	4.0
9.2187	89.0334	2.82	0.06	10.00	-20.00	7.326	5.25946	7.42875	0.0
9.2387	89.0334	2.82	0.06	10.00	-20.00	7.326	5.25686	7.43058	0.0
9.2587	89.0334	2.82	0.06	10.00	-20.00	7.326	5.25427	7.43242	4.0
9.2787	89.0334	2.82	0.06	10.00	-20.00	7.326	5.25167	7.43425	0.0
9.2987	89.0334	2.82	0.06	10.00	-20.00	7.326	5.24908	7.43608	0.0
9.3187	89.0334	2.82	0.06	10.00	-20.00	7.326	5.24648	7.43791	0.0
9.3387	89.0334	2.82	0.06	10.00	-20.00	7.326	5.24389	7.43974	4.0
9.3587	89.0334	2.82	0.06	10.00	-20.00	7.326	5.24129	7.44158	2.0
9.3787	89.0334	2.82	0.06	10.00	-20.00	7.326	5.23869	7.44340	4.0
9.3987	89.0334	2.82	0.06	10.00	-20.00	7.326	5.23609	7.44523	6.0
9.4187	89.0334	2.82	0.06	10.00	-20.00	7.326	5.23349	7.44706	0.0
9.4387	89.0334	2.82	0.06	10.00	-20.00	7.326	5.23089	7.44889	0.0
9.4587	89.0334	2.82	0.06	10.00	-20.00	7.326	5.22829	7.45071	4.0
9.4787	89.0334	2.82	0.06	10.00	-20.00	7.326	5.22569	7.45254	2.0
9.4987	89.0334	2.82	0.06	10.00	-20.00	7.326	5.22309	7.45436	2.0
9.5187	89.0334	2.82	0.06	10.00	-20.00	7.326	5.22049	7.45618	0.0
9.5387	89.0334	2.82	0.06	10.00	-20.00	7.326	5.21788	7.45800	2.0
9.5587	89.0334	2.82	0.06	10.00	-20.00	7.326	5.21528	7.45983	0.0
9.5787	89.0334	2.82	0.06	10.00	-20.00	7.326	5.21268	7.46165	0.0
9.5987	89.0334	2.82	0.06	10.00	-20.00	7.326	5.21007	7.46346	0.0
9.6187	89.0334	2.82	0.06	10.00	-20.00	7.326	5.20747	7.46528	0.0
9.6387	89.0334	2.82	0.06	10.00	-20.00	7.326	5.20486	7.46710	4.0
9.6587	89.0334	2.82	0.06	10.00	-20.00	7.326	5.20225	7.46892	0.0
9.6787	89.0334	2.82	0.06	10.00	-20.00	7.326	5.19965	7.47073	2.0
9.6987	89.0334	2.82	0.06	10.00	-20.00	7.326	5.19704	7.47255	4.0
9.7187	89.0334	2.82	0.06	10.00	-20.00	7.326	5.19443	7.47436	0.0
9.7387	89.0334	2.82	0.06	10.00	-20.00	7.326	5.19182	7.47617	0.0
9.7587	89.0334	2.82	0.06	10.00	-20.00	7.326	5.18921	7.47798	0.0
9.7787	89.0334	2.82	0.06	10.00	-20.00	7.326	5.18660	7.47980	0.0
9.7987	89.0334	2.82	0.06	10.00	-20.00	7.326	5.18399	7.48161	4.0
9.8187	89.0334	2.82	0.06	10.00	-20.00	7.326	5.18138	7.48341	4.0
9.8387	89.0334	2.82	0.06	10.00	-20.00	7.326	5.17876	7.48522	0.0
9.8587	89.0334	2.82	0.06	10.00	-20.00	7.326	5.17615	7.48703	2.0
9.8787	89.0334	2.82	0.06	10.00	-20.00	7.326	5.17354	7.48884	2.0
9.8987	89.0334	2.82	0.06	10.00	-20.00	7.326	5.17092	7.49064	0.0
9.9187	89.0334	2.82	0.06	10.00	-20.00	7.326	5.16831	7.49245	2.0
9.9387	89.0334	2.82	0.06	10.00	-20.00	7.326	5.16569	7.49425	2.0
9.9587	89.0334	2.82	0.06	10.00	-20.00	7.326	5.16307	7.49605	2.0
9.9787	89.0334	2.82	0.06	10.00	-20.00	7.326	5.16046	7.49785	0.0
9.9987	89.0334	2.82	0.06	10.00	-20.00	7.326	5.15784	7.49966	2.0
10.0187	89.0334	2.82	0.06	10.00	-20.00	7.326	5.15522	7.50146	2.0
10.0387	89.0334	2.82	0.06	10.00	-20.00	7.326	5.15260	7.50325	4.0
10.0587	89.0334	2.82	0.06	10.00	-20.00	7.326	5.14998	7.50505	0.0

File: 2.0deg-2.0deg-rsm-3h10mins_11371-as-grown_224_w-scans.dat
# filename: 2.0deg-2.0deg-rsm-3h10mins_11371-as-grown_224.dat
# reflection: (004)
# type: rotated into a series of omega scans
# x-axis: Omega_2Theta
#
# Omega	2Theta	Phi  	Chi   	X    	Y    	Z    	q_para	q_perp	Intensity
# [deg]	[deg] 	[deg]	[deg] 	[mm] 	[mm] 	[mm] 	[nm-1]	[nm-1]	[counts/s]
6.3979	85.0636	0.79	0.07	5.00	5.00	7.412	5.17499	7.08787	0.0
6.4179	85.0636	0.79	0.07	5.00	5.00	7.412	5.17251	7.08967	0.0
6.4379	85.0636	0.79	0.07	5.00	5.00	7.412	5.17004	7.09148	0.0
6.4579	85.0636	0.79	0.07	5.00	5.00	7.412	5.16756	7.09328	0.0
6.4779	85.0636	0.79	0.07	5.00	5.00	7.412	5.16509	7.09508	0.0
6.4979	85.0636	0.79	0.07	5.00	5.00	7.412	5.16261	7.09689	0.0
6.5179	85.0636	0.79	0.07	5.00	5.00	7.412	5.16013	7.09869	0.0
6.5379	85.0636	0.79	0.07	5.00	5.00	7.412	5.15765	7.10049	2.0
6.5579	85.0636	0.79	0.07	5.00	5.00	7.412	5.15517	7.10229	0.0
6.5779	85.0636	0.79	0.07	5.00	5.00	7.412	5.15269	7.10409	0.0
6.5979	85.0636	0.79	0.07	5.00	5.00	7.412	5.15021	7.10589	0.0
6.6179	85.0636	0.79	0.07	5.00	5.00	7.412	5.14773	7.10768	4.0
6.6379	85.0636	0.79	0.07	5.00	5.00	7.412	5.14525	7.10948	2.0
6.6579	85.0636	0.79	0.07	5.00	5.00	7.412	5.14277	7.11128	2.0
6.6779	85.0636	0.79	0.07	5.00	5.00	7.412	5.14029	7.11307	0.0
6.6979	85.0636	0.79	0.07	5.00	5.00	7.412	5.13780	7.11486	0.0
6.7179	85.0636	0.79	0.07	5.00	5.00	7.412	5.13532	7.11666	0.0
6.7379	85.0636	0.79	0.07	5.00	5.00	7.412	5.13284	7.11845	0.0
6.7579	85.0636	0.79	0.07	5.00	5.00	7.412	5.13035	7.12024	2.0
6.7779	85.0636	0.79	0.07	5.00	5.00	7.412	5.12787	7.12203	0.0
6.7979	85.0636	0.79	0.07	5.00	5.00	7.412	5.12538	7.12382	0.0
6.8179	85.0636	0.79	0.07	5.00	5.00	7.412	5.12289	7.12561	6.0
6.8379	85.0636	0.79	0.07	5.00	5.00	7.412	5.12040	7.12740	0.0
6.8579	85.0636	0.79	0.07	5.00	5.00	7.412	5.11792	7.12918	0.0
6.8779	85.0636	0.79	0.07	5.00	5.00	7.412	5.11543	7.13097	0.0
6.8979	85.0636	0.79	0.07	5.00	5.00	7.412	5.11294	7.13276	2.0
6.9179	85.0636	0.79	0.07	5.00	5.00	7.412	5.11045	7.13454	2.0
6.9379	85.0636	0.79	0.07	5.00	5.00	7.412	5.10796	7.13632	0.0
6.9579	85.0636	0.79	0.07	5.00	5.00	7.412	5.10547	7.13811	0.0
6.9779	85.0636	0.79	0.07	5.00	5.00	7.412	5.10297	7.13989	2.0
6.9979	85.0636	0.79	0.07	5.00	5.00	7.412	5.10048	7.14167	0.0
7.0179	85.0636	0.79	0.07	5.00	5.00	7.412	5.09799	7.14345	0.0
7.0379	85.0636	0.79	0.07	5.00	5.00	7.412	5.09549	7.14523	0.0
7.0579	85.0636	0.79	0.07	5.00	5.00	7.412	5.09300	7.14701	0.0
7.0779	85.0636	0.79	0.07	5.00	5.00	7.412	5.09050	7.14878	0.0
7.0979	85.0636	0.79	0.07	5.00	5.00	7.412	5.08801	7.15056	0.0
7.1179	85.0636	0.79	0.07	5.00	5.00	7.412	5.08551	7.15234	4.0
7.1379	85.0636	0.79	0.07	5.00	5.00	7.412	5.08302	7.15411	0.0
7.1579	85.0636	0.79	0.07	5.00	5.00	7.412	5.08052	7.15588	2.0
7.1779	85.0636	0.79	0.07	5.00	5.00	7.412	5.07802	7.15766	0.0
7.1979	85.0636	0.79	0.07	5.00	5.00	7.412	5.07552	7.15943	2.0
7.2179	85.0636	0.79	0.07	5.00	5.00	7.412	5.07302	7.16120	2.0
7.2379	85.0636	0.79	0.07	5.00	5.00	7.412	5.07052	7.16297	0.0
7.2579	85.0636	0.79	0.07	5.00	5.00	7.412	5.06802	7.16474	0.0
7.2779	85.0636	0.79	0.07	5.00	5.00	7.412	5.06552	7.16651	6.0
7.2979	85.0636	0.79	0.07	5.00	5.00	7.412	5.06302	7.16828	0.0
7.3179	85.0636	0.79	0.07	5.00	5.00	7.412	5.06051	7.17004	0.0
7.3379	85.0636	0.79	0.07	5.00	5.00	7.412	5.05801	7.17181	0.0
7.3579	85.0636	0.79	0.07	5.00	5.00	7.412	5.05551	7.17357	2.0
7.3779	85.0636	0.79	0.07	5.00	5.00	7.412	5.05300	7.17534	2.0
7.3979	85.0636	0.79	0.07	5.00	5.00	7.412	5.05050	7.17710	6.0
7.4179	85.0636	0.79	0.07	5.00	5.00	7.412	5.04799	7.17886	4.0
7.4379	85.0636	0.79	0.07	5.00	5.00	7.412	5.04549	7.18063	2.0
7.4579	85.0636	0.79	0.07	5.00	5.00	7.412	5.04298	7.18239	2.0
7.4779	85.0636	0.79	0.07	5.00	5.00	7.412	5.04047	7.18415	2.0
7.4979	85.0636	0.79	0.07	5.00	5.00	7.412	5.03796	7.18591	0.0
7.5179	85.0636	0.79	0.07	5.00	5.00	7.412	5.03546	7.18766	0.0
7.5379	85.0636	0.79	0.07	5.00	5.00	7.412	5.03295	7.18942	6.0
7.5579	85.0636	0.79	0.07	5.00	5.00	7.412	5.03044	7.19118	2.0
7.5779	85.0636	0.79	0.07	5.00	5.00	7.412	5.02793	7.19293	0.0
7.5979	85.0636	0.79	0.07	5.00	5.00	7.412	5.02542	7.19469	0.0
7.6179	85.0636	0.79	0.07	5.00	5.00	7.412	5.02290	7.19644	0.0
7.6379	85.0636	0.79	0.07	5.00	5.00	7.412	5.02039	7.19819	2.0
7.6579	85.0636	0.79	0.07	5.00	5.00	7.412	5.01788	7.19995	2.0
7.6779	85.0636	0.79	0.07	5.00	5.00	7.412	5.01536	7.20170	2.0
7.6979	85.0636	0.79	0.07	5.00	5.00	7.412	5.01285	7.20345	0.0
7.7179	85.0636	0.79	0.07	5.00	5.00	7.412	5.01034	7.20520	0.0
7.7379	85.0636	0.79	0.07	5.00	5.00	7.412	5.00782	7.20695	0.0
7.7579	85.0636	0.79	0.07	5.00	5.00	7.412	5.00530	7.20869	6.0
7.7779	85.0636	0.79	0.07	5.00	5.00	7.412	5.00279	7.21044	4.0
7.7979	85.0636	0.79	0.07	5.00	5.00	7.412	5.00027	7.21219	2.0
7.8179	85.0636	0.79	0.07	5.00	5.00	7.412	4.99775	7.21393	0.0
7.8379	85.0636	0.79	0.07	5.00	5.00	7.412	4.99523	7.21568	2.0
7.8579	85.0636	0.79	0.07	5.00	5.00	7.412	4.99272	7.21742	0.0
7.8779	85.0636	0.79	0.07	5.00	5.00	7.412	4.99020	7.21916	0.0
7.8979	85.0636	0.79	0.07	5.00	5.00	7.412	4.98768	7.22090	6.0
7.9179	85.0636	0.79	0.07	5.00	5.00	7.412	4.98515	7.22264	2.0
7.9379	85.0636	0.79	0.07	5.00	5.00	7.412	4.98263	7.22438	0.0
7.9579	85.0636	0.79	0.07	5.00	5.00	7.412	4.98011	7.22612	6.0
7.9779	85.0636	0.79	0.07	5.00	5.00	7.412	4.97759	7.22786	2.0
7.9979	85.0636	0.79	0.07	5.00	5.00	7.412	4.97506	7.22960	0.0
8.0179	85.0636	0.79	0.07	5.00	5.00	7.412	4.97254	7.23133	4.0
8.0379	85.0636	0.79	0.07	5.00	5.00	7.412	4.97002	7.23307	0.0
8.0579	85.0636	0.79	0.07	5.00	5.00	7.412	4.96749	7.23480	0.0
8.0779	85.0636	0.79	0.07	5.00	5.00	7.412	4.96497	7.23654	0.0
8.0979	85.0636	0.79	0.07	5.00	5.00	7.412	4.96244	7.23827	6.0
8.1179	85.0636	0.79	0.07	5.00	5.00	7.412	4.95991	7.24000	0.0
8.1379	85.0636	0.79	0.07	5.00	5.00	7.412	4.95738	7.24173	0.0
8.1579	85.0636	0.79	0.07	5.00	5.00	7.412	4.95486	7.24346	2.0
8.1779	85.0636	0.79	0.07	5.00	5.00	7.412	4.95233	7.24519	2.0
8.1979	85.0636	0.79	0.07	5.00	5.00	7.412	4.94980	7.24692	2.0
8.2179	85.0636	0.79	0.07	5.00	5.00	7.412	4.94727	7.24865	0.0
8.2379	85.0636	0.79	0.07	5.00	5.00	7.412	4.94474	7.25037	0.0
8.2579	85.0636	0.79	0.07	5.00	5.00	7.412	4.94221	7.25210	2.0
8.2779	85.0636	0.79	0.07	5.00	5.00	7.412	4.93967	7.25382	2.0
8.2979	85.0636	0.79	0.07	5.00	5.00	7.412	4.93714	7.25555	0.0
8.3179	85.0636	0.79	0.07	5.00	5.00	7.412	4.93461	7.25727	2.0
8.3379	85.0636	0.79	0.07	5.00	5.00	7.412	4.93208	7.25899	0.0
8.3579	85.0636	0.79	0.07	5.00	5.00	7.412	4.92954	7.26071	0.0
8.3779	85.0636	0.79	0.07	5.00	5.00	7.412	4.92701	7.26243	0.0
8.3979	85.0636	0.79	0.07	5.00	5.00	7.412	4.92447	7.26415	0.0

6.4079	85.0836	0.79	0.07	5.00	5.00	7.412	5.17597	7.08921	2.0
6.4279	85.0836	0.79	0.07	5.00	5.00	7.412	5.17350	7.09102	2.0
6.4479	85.0836	0.79	0.07	5.00	5.00	7.412	5.17102	7.09283	2.0
6.4679	85.0836	0.79	0.07	5.00	5.00	7.412	5.16854	7.09463	0.0
6.4879	85.0836	0.79	0.07	5.00	5.00	7.412	5.16607	7.09643	4.0
6.5079	85.0836	0.79	0.07	5.00	5.00	7.412	5.16359	7.09824	4.0
6.5279	85.0836	0.79	0.07	5.00	5.00	7.412	5.16111	7.10004	0.0
6.5479	85.0836	0.79	0.07	5.00	5.00	7.412	5.15863	7.10184	2.0
6.5679	85.0836	0.79	0.07	5.00	5.00	7.412	5.15615	7.10364	0.0
6.5879	85.0836	0.79	0.07	5.00	5.00	7.412	5.15367	7.10544	4.0
6.6079	85.0836	0.79	0.07	5.00	5.00	7.412	5.15119	7.10724	2.0
6.6279	85.0836	0.79	0.07	5.00	5.00	7.412	5.14871	7.10904	2.0
6.6479	85.0836	0.79	0.07	5.00	5.00	7.412	5.14623	7.11083	0.0
6.6679	85.0836	0.79	0.07	5.00	5.00	7.412	5.14375	7.11263	0.0
[...]
9.2179	89.0236	0.79	0.07	5.00	5.00	7.412	5.25847	7.42848	0.0
9.2379	89.0236	0.79	0.07	5.00	5.00	7.412	5.25587	7.43031	2.0
9.2579	89.0236	0.79	0.07	5.00	5.00	7.412	5.25328	7.43215	2.0
9.2779	89.0236	0.79	0.07	5.00	5.00	7.412	5.25069	7.43398	2.0
9.2979	89.0236	0.79	0.07	5.00	5.00	7.412	5.24809	7.43581	0.0
9.3179	89.0236	0.79	0.07	5.00	5.00	7.412	5.24549	7.43764	0.0
9.3379	89.0236	0.79	0.07	5.00	5.00	7.412	5.24290	7.43947	0.0
9.3579	89.0236	0.79	0.07	5.00	5.00	7.412	5.24030	7.44130	0.0
9.3779	89.0236	0.79	0.07	5.00	5.00	7.412	5.23770	7.44313	2.0
9.3979	89.0236	0.79	0.07	5.00	5.00	7.412	5.23510	7.44496	0.0
9.4179	89.0236	0.79	0.07	5.00	5.00	7.412	5.23250	7.44679	2.0
9.4379	89.0236	0.79	0.07	5.00	5.00	7.412	5.22990	7.44861	0.0
9.4579	89.0236	0.79	0.07	5.00	5.00	7.412	5.22730	7.45044	2.0
9.4779	89.0236	0.79	0.07	5.00	5.00	7.412	5.22470	7.45226	2.0
9.4979	89.0236	0.79	0.07	5.00	5.00	7.412	5.22210	7.45408	2.0
9.5179	89.0236	0.79	0.07	5.00	5.00	7.412	5.21950	7.45591	2.0
9.5379	89.0236	0.79	0.07	5.00	5.00	7.412	5.21690	7.45773	2.0
9.5579	89.0236	0.79	0.07	5.00	5.00	7.412	5.21429	7.45955	4.0
9.5779	89.0236	0.79	0.07	5.00	5.00	7.412	5.21169	7.46137	2.0
9.5979	89.0236	0.79	0.07	5.00	5.00	7.412	5.20908	7.46319	2.0
9.6179	89.0236	0.79	0.07	5.00	5.00	7.412	5.20648	7.46501	0.0
9.6379	89.0236	0.79	0.07	5.00	5.00	7.412	5.20387	7.46682	4.0
9.6579	89.0236	0.79	0.07	5.00	5.00	7.412	5.20127	7.46864	2.0
9.6779	89.0236	0.79	0.07	5.00	5.00	7.412	5.19866	7.47045	0.0
9.6979	89.0236	0.79	0.07	5.00	5.00	7.412	5.19605	7.47227	0.0
9.7179	89.0236	0.79	0.07	5.00	5.00	7.412	5.19344	7.47408	4.0
9.7379	89.0236	0.79	0.07	5.00	5.00	7.412	5.19083	7.47589	0.0
9.7579	89.0236	0.79	0.07	5.00	5.00	7.412	5.18822	7.47771	0.0
9.7779	89.0236	0.79	0.07	5.00	5.00	7.412	5.18561	7.47952	0.0
9.7979	89.0236	0.79	0.07	5.00	5.00	7.412	5.18300	7.48133	0.0
9.8179	89.0236	0.79	0.07	5.00	5.00	7.412	5.18039	7.48313	2.0
9.8379	89.0236	0.79	0.07	5.00	5.00	7.412	5.17778	7.48494	2.0
9.8579	89.0236	0.79	0.07	5.00	5.00	7.412	5.17516	7.48675	2.0
9.8779	89.0236	0.79	0.07	5.00	5.00	7.412	5.17255	7.48856	4.0
9.8979	89.0236	0.79	0.07	5.00	5.00	7.412	5.16994	7.49036	2.0
9.9179	89.0236	0.79	0.07	5.00	5.00	7.412	5.16732	7.49216	0.0
9.9379	89.0236	0.79	0.07	5.00	5.00	7.412	5.16471	7.49397	0.0
9.9579	89.0236	0.79	0.07	5.00	5.00	7.412	5.16209	7.49577	4.0
9.9779	89.0236	0.79	0.07	5.00	5.00	7.412	5.15947	7.49757	4.0
9.9979	89.0236	0.79	0.07	5.00	5.00	7.412	5.15685	7.49937	0.0
10.0179	89.0236	0.79	0.07	5.00	5.00	7.412	5.15424	7.50117	0.0
10.0379	89.0236	0.79	0.07	5.00	5.00	7.412	5.15162	7.50297	0.0
10.0579	89.0236	0.79	0.07	5.00	5.00	7.412	5.14900	7.50477	0.0
10.0779	89.0236	0.79	0.07	5.00	5.00	7.412	5.14638	7.50657	2.0
10.0979	89.0236	0.79	0.07	5.00	5.00	7.412	5.14376	7.50836	0.0
10.1179	89.0236	0.79	0.07	5.00	5.00	7.412	5.14114	7.51016	4.0
10.1379	89.0236	0.79	0.07	5.00	5.00	7.412	5.13851	7.51195	2.0
10.1579	89.0236	0.79	0.07	5.00	5.00	7.412	5.13589	7.51374	0.0
10.1779	89.0236	0.79	0.07	5.00	5.00	7.412	5.13327	7.51554	0.0
10.1979	89.0236	0.79	0.07	5.00	5.00	7.412	5.13065	7.51733	2.0
10.2179	89.0236	0.79	0.07	5.00	5.00	7.412	5.12802	7.51912	0.0
10.2379	89.0236	0.79	0.07	5.00	5.00	7.412	5.12540	7.52091	2.0
10.2579	89.0236	0.79	0.07	5.00	5.00	7.412	5.12277	7.52270	0.0
10.2779	89.0236	0.79	0.07	5.00	5.00	7.412	5.12014	7.52448	2.0
10.2979	89.0236	0.79	0.07	5.00	5.00	7.412	5.11752	7.52627	2.0
10.3179	89.0236	0.79	0.07	5.00	5.00	7.412	5.11489	7.52806	2.0
10.3379	89.0236	0.79	0.07	5.00	5.00	7.412	5.11226	7.52984	0.0
10.3579	89.0236	0.79	0.07	5.00	5.00	7.412	5.10963	7.53163	0.0
10.3779	89.0236	0.79	0.07	5.00	5.00	7.412	5.10700	7.53341	2.0