Folder: Thesis_XRD/Data/Omega (part 2)

File: 1.5deg-2.0deg-rsm-2h30mins_11355-as-grown_004_w-scans.dat
# filename: 1.5deg-2.0deg-rsm-2h30mins_11355-as-grown_004.dat
# reflection: (004)
# type: rotated into a series of omega scans
# x-axis: Omega_2Theta
#
# Omega	2Theta	Phi  	Chi   	X    	Y    	Z    	q_para	q_perp	Intensity
# [deg]	[deg] 	[deg]	[deg] 	[mm] 	[mm] 	[mm] 	[nm-1]	[nm-1]	[counts/s]
32.1686	66.6692	0.46	0.06	-30.00	-20.00	7.373	0.14517	7.13264	0.0
32.1886	66.6692	0.46	0.06	-30.00	-20.00	7.373	0.14268	7.13269	4.0
32.2086	66.6692	0.46	0.06	-30.00	-20.00	7.373	0.14019	7.13274	0.0
32.2286	66.6692	0.46	0.06	-30.00	-20.00	7.373	0.13770	7.13279	0.0
32.2486	66.6692	0.46	0.06	-30.00	-20.00	7.373	0.13521	7.13284	2.0
32.2686	66.6692	0.46	0.06	-30.00	-20.00	7.373	0.13272	7.13288	0.0
32.2886	66.6692	0.46	0.06	-30.00	-20.00	7.373	0.13023	7.13293	2.0
32.3086	66.6692	0.46	0.06	-30.00	-20.00	7.373	0.12774	7.13297	0.0
32.3286	66.6692	0.46	0.06	-30.00	-20.00	7.373	0.12525	7.13302	0.0
32.3486	66.6692	0.46	0.06	-30.00	-20.00	7.373	0.12276	7.13306	4.0
32.3686	66.6692	0.46	0.06	-30.00	-20.00	7.373	0.12027	7.13310	0.0
32.3886	66.6692	0.46	0.06	-30.00	-20.00	7.373	0.11778	7.13314	2.0
32.4086	66.6692	0.46	0.06	-30.00	-20.00	7.373	0.11529	7.13318	0.0
32.4286	66.6692	0.46	0.06	-30.00	-20.00	7.373	0.11280	7.13322	0.0
32.4486	66.6692	0.46	0.06	-30.00	-20.00	7.373	0.11031	7.13326	0.0
32.4686	66.6692	0.46	0.06	-30.00	-20.00	7.373	0.10782	7.13330	0.0
32.4886	66.6692	0.46	0.06	-30.00	-20.00	7.373	0.10533	7.13334	0.0
32.5086	66.6692	0.46	0.06	-30.00	-20.00	7.373	0.10284	7.13338	2.0
32.5286	66.6692	0.46	0.06	-30.00	-20.00	7.373	0.10035	7.13341	0.0
32.5486	66.6692	0.46	0.06	-30.00	-20.00	7.373	0.09786	7.13345	4.0
32.5686	66.6692	0.46	0.06	-30.00	-20.00	7.373	0.09537	7.13348	0.0
32.5886	66.6692	0.46	0.06	-30.00	-20.00	7.373	0.09288	7.13351	2.0
32.6086	66.6692	0.46	0.06	-30.00	-20.00	7.373	0.09039	7.13354	0.0
32.6286	66.6692	0.46	0.06	-30.00	-20.00	7.373	0.08790	7.13358	0.0
32.6486	66.6692	0.46	0.06	-30.00	-20.00	7.373	0.08541	7.13361	0.0
32.6686	66.6692	0.46	0.06	-30.00	-20.00	7.373	0.08292	7.13363	0.0
32.6886	66.6692	0.46	0.06	-30.00	-20.00	7.373	0.08043	7.13366	0.0
32.7086	66.6692	0.46	0.06	-30.00	-20.00	7.373	0.07794	7.13369	0.0
32.7286	66.6692	0.46	0.06	-30.00	-20.00	7.373	0.07545	7.13372	2.0
32.7486	66.6692	0.46	0.06	-30.00	-20.00	7.373	0.07296	7.13374	0.0
32.7686	66.6692	0.46	0.06	-30.00	-20.00	7.373	0.07047	7.13377	2.0
32.7886	66.6692	0.46	0.06	-30.00	-20.00	7.373	0.06798	7.13379	2.0
32.8086	66.6692	0.46	0.06	-30.00	-20.00	7.373	0.06549	7.13382	0.0
32.8286	66.6692	0.46	0.06	-30.00	-20.00	7.373	0.06300	7.13384	4.0
32.8486	66.6692	0.46	0.06	-30.00	-20.00	7.373	0.06051	7.13386	4.0
32.8686	66.6692	0.46	0.06	-30.00	-20.00	7.373	0.05802	7.13388	2.0
32.8886	66.6692	0.46	0.06	-30.00	-20.00	7.373	0.05553	7.13390	0.0
32.9086	66.6692	0.46	0.06	-30.00	-20.00	7.373	0.05304	7.13392	2.0
32.9286	66.6692	0.46	0.06	-30.00	-20.00	7.373	0.05055	7.13394	2.0
32.9486	66.6692	0.46	0.06	-30.00	-20.00	7.373	0.04806	7.13395	2.0
32.9686	66.6692	0.46	0.06	-30.00	-20.00	7.373	0.04557	7.13397	4.0
32.9886	66.6692	0.46	0.06	-30.00	-20.00	7.373	0.04308	7.13399	0.0
33.0086	66.6692	0.46	0.06	-30.00	-20.00	7.373	0.04059	7.13400	0.0
33.0286	66.6692	0.46	0.06	-30.00	-20.00	7.373	0.03810	7.13401	0.0
33.0486	66.6692	0.46	0.06	-30.00	-20.00	7.373	0.03561	7.13403	2.0
33.0686	66.6692	0.46	0.06	-30.00	-20.00	7.373	0.03312	7.13404	0.0
33.0886	66.6692	0.46	0.06	-30.00	-20.00	7.373	0.03063	7.13405	0.0
33.1086	66.6692	0.46	0.06	-30.00	-20.00	7.373	0.02814	7.13406	0.0
33.1286	66.6692	0.46	0.06	-30.00	-20.00	7.373	0.02565	7.13407	2.0
33.1486	66.6692	0.46	0.06	-30.00	-20.00	7.373	0.02316	7.13408	2.0
33.1686	66.6692	0.46	0.06	-30.00	-20.00	7.373	0.02067	7.13409	0.0
33.1886	66.6692	0.46	0.06	-30.00	-20.00	7.373	0.01818	7.13409	0.0
33.2086	66.6692	0.46	0.06	-30.00	-20.00	7.373	0.01569	7.13410	0.0
33.2286	66.6692	0.46	0.06	-30.00	-20.00	7.373	0.01320	7.13410	2.0
33.2486	66.6692	0.46	0.06	-30.00	-20.00	7.373	0.01071	7.13411	0.0
33.2686	66.6692	0.46	0.06	-30.00	-20.00	7.373	0.00822	7.13411	2.0
33.2886	66.6692	0.46	0.06	-30.00	-20.00	7.373	0.00573	7.13411	2.0
33.3086	66.6692	0.46	0.06	-30.00	-20.00	7.373	0.00324	7.13412	4.0
33.3286	66.6692	0.46	0.06	-30.00	-20.00	7.373	0.00075	7.13412	0.0
33.3486	66.6692	0.46	0.06	-30.00	-20.00	7.373	-0.00174	7.13412	6.0
33.3686	66.6692	0.46	0.06	-30.00	-20.00	7.373	-0.00423	7.13412	2.0
33.3886	66.6692	0.46	0.06	-30.00	-20.00	7.373	-0.00672	7.13411	0.0
33.4086	66.6692	0.46	0.06	-30.00	-20.00	7.373	-0.00921	7.13411	2.0
33.4286	66.6692	0.46	0.06	-30.00	-20.00	7.373	-0.01170	7.13411	4.0
33.4486	66.6692	0.46	0.06	-30.00	-20.00	7.373	-0.01419	7.13410	2.0
33.4686	66.6692	0.46	0.06	-30.00	-20.00	7.373	-0.01668	7.13410	0.0
33.4886	66.6692	0.46	0.06	-30.00	-20.00	7.373	-0.01918	7.13409	0.0
33.5086	66.6692	0.46	0.06	-30.00	-20.00	7.373	-0.02167	7.13408	2.0
33.5286	66.6692	0.46	0.06	-30.00	-20.00	7.373	-0.02416	7.13408	0.0
33.5486	66.6692	0.46	0.06	-30.00	-20.00	7.373	-0.02665	7.13407	2.0
33.5686	66.6692	0.46	0.06	-30.00	-20.00	7.373	-0.02914	7.13406	0.0
33.5886	66.6692	0.46	0.06	-30.00	-20.00	7.373	-0.03163	7.13405	0.0
33.6086	66.6692	0.46	0.06	-30.00	-20.00	7.373	-0.03412	7.13404	0.0
33.6286	66.6692	0.46	0.06	-30.00	-20.00	7.373	-0.03661	7.13402	0.0
33.6486	66.6692	0.46	0.06	-30.00	-20.00	7.373	-0.03910	7.13401	2.0
33.6686	66.6692	0.46	0.06	-30.00	-20.00	7.373	-0.04159	7.13400	0.0
33.6886	66.6692	0.46	0.06	-30.00	-20.00	7.373	-0.04408	7.13398	0.0
33.7086	66.6692	0.46	0.06	-30.00	-20.00	7.373	-0.04657	7.13396	2.0
33.7286	66.6692	0.46	0.06	-30.00	-20.00	7.373	-0.04906	7.13395	2.0
33.7486	66.6692	0.46	0.06	-30.00	-20.00	7.373	-0.05155	7.13393	0.0
33.7686	66.6692	0.46	0.06	-30.00	-20.00	7.373	-0.05404	7.13391	0.0
33.7886	66.6692	0.46	0.06	-30.00	-20.00	7.373	-0.05653	7.13389	0.0
33.8086	66.6692	0.46	0.06	-30.00	-20.00	7.373	-0.05902	7.13387	2.0
33.8286	66.6692	0.46	0.06	-30.00	-20.00	7.373	-0.06151	7.13385	0.0
33.8486	66.6692	0.46	0.06	-30.00	-20.00	7.373	-0.06400	7.13383	0.0
33.8686	66.6692	0.46	0.06	-30.00	-20.00	7.373	-0.06649	7.13381	0.0
33.8886	66.6692	0.46	0.06	-30.00	-20.00	7.373	-0.06898	7.13378	0.0
33.9086	66.6692	0.46	0.06	-30.00	-20.00	7.373	-0.07147	7.13376	2.0
33.9286	66.6692	0.46	0.06	-30.00	-20.00	7.373	-0.07396	7.13373	0.0
33.9486	66.6692	0.46	0.06	-30.00	-20.00	7.373	-0.07645	7.13371	2.0
33.9686	66.6692	0.46	0.06	-30.00	-20.00	7.373	-0.07894	7.13368	2.0
33.9886	66.6692	0.46	0.06	-30.00	-20.00	7.373	-0.08143	7.13365	0.0
34.0086	66.6692	0.46	0.06	-30.00	-20.00	7.373	-0.08392	7.13362	0.0
34.0286	66.6692	0.46	0.06	-30.00	-20.00	7.373	-0.08641	7.13359	0.0
34.0486	66.6692	0.46	0.06	-30.00	-20.00	7.373	-0.08890	7.13356	0.0
34.0686	66.6692	0.46	0.06	-30.00	-20.00	7.373	-0.09139	7.13353	2.0
34.0886	66.6692	0.46	0.06	-30.00	-20.00	7.373	-0.09388	7.13350	0.0
34.1086	66.6692	0.46	0.06	-30.00	-20.00	7.373	-0.09637	7.13347	0.0
34.1286	66.6692	0.46	0.06	-30.00	-20.00	7.373	-0.09886	7.13343	6.0
34.1486	66.6692	0.46	0.06	-30.00	-20.00	7.373	-0.10135	7.13340	2.0
34.1686	66.6692	0.46	0.06	-30.00	-20.00	7.373	-0.10384	7.13336	2.0

32.1786	66.6892	0.46	0.06	-30.00	-20.00	7.373	0.14521	7.13453	0.0
32.1986	66.6892	0.46	0.06	-30.00	-20.00	7.373	0.14272	7.13458	0.0
32.2186	66.6892	0.46	0.06	-30.00	-20.00	7.373	0.14023	7.13463	2.0
32.2386	66.6892	0.46	0.06	-30.00	-20.00	7.373	0.13774	7.13468	2.0
32.2586	66.6892	0.46	0.06	-30.00	-20.00	7.373	0.13525	7.13473	0.0
[...]
34.5886	69.6292	0.46	0.06	-30.00	-20.00	7.373	0.02924	7.41182	0.0
34.6086	69.6292	0.46	0.06	-30.00	-20.00	7.373	0.02665	7.41183	0.0
34.6286	69.6292	0.46	0.06	-30.00	-20.00	7.373	0.02406	7.41184	0.0
34.6486	69.6292	0.46	0.06	-30.00	-20.00	7.373	0.02147	7.41185	2.0
34.6686	69.6292	0.46	0.06	-30.00	-20.00	7.373	0.01889	7.41185	8.0
34.6886	69.6292	0.46	0.06	-30.00	-20.00	7.373	0.01630	7.41186	2.0
34.7086	69.6292	0.46	0.06	-30.00	-20.00	7.373	0.01371	7.41186	4.0
34.7286	69.6292	0.46	0.06	-30.00	-20.00	7.373	0.01113	7.41187	0.0
34.7486	69.6292	0.46	0.06	-30.00	-20.00	7.373	0.00854	7.41187	2.0
34.7686	69.6292	0.46	0.06	-30.00	-20.00	7.373	0.00595	7.41187	6.0
34.7886	69.6292	0.46	0.06	-30.00	-20.00	7.373	0.00336	7.41188	0.0
34.8086	69.6292	0.46	0.06	-30.00	-20.00	7.373	0.00078	7.41188	6.0
34.8286	69.6292	0.46	0.06	-30.00	-20.00	7.373	-0.00181	7.41188	2.0
34.8486	69.6292	0.46	0.06	-30.00	-20.00	7.373	-0.00440	7.41188	0.0
34.8686	69.6292	0.46	0.06	-30.00	-20.00	7.373	-0.00699	7.41187	2.0
34.8886	69.6292	0.46	0.06	-30.00	-20.00	7.373	-0.00957	7.41187	4.0
34.9086	69.6292	0.46	0.06	-30.00	-20.00	7.373	-0.01216	7.41187	2.0
34.9286	69.6292	0.46	0.06	-30.00	-20.00	7.373	-0.01475	7.41186	4.0
34.9486	69.6292	0.46	0.06	-30.00	-20.00	7.373	-0.01733	7.41186	2.0
34.9686	69.6292	0.46	0.06	-30.00	-20.00	7.373	-0.01992	7.41185	0.0
34.9886	69.6292	0.46	0.06	-30.00	-20.00	7.373	-0.02251	7.41184	4.0
35.0086	69.6292	0.46	0.06	-30.00	-20.00	7.373	-0.02510	7.41183	2.0
35.0286	69.6292	0.46	0.06	-30.00	-20.00	7.373	-0.02768	7.41183	0.0
35.0486	69.6292	0.46	0.06	-30.00	-20.00	7.373	-0.03027	7.41182	4.0
35.0686	69.6292	0.46	0.06	-30.00	-20.00	7.373	-0.03286	7.41180	2.0
35.0886	69.6292	0.46	0.06	-30.00	-20.00	7.373	-0.03544	7.41179	2.0
35.1086	69.6292	0.46	0.06	-30.00	-20.00	7.373	-0.03803	7.41178	4.0
35.1286	69.6292	0.46	0.06	-30.00	-20.00	7.373	-0.04062	7.41177	4.0
35.1486	69.6292	0.46	0.06	-30.00	-20.00	7.373	-0.04321	7.41175	2.0
35.1686	69.6292	0.46	0.06	-30.00	-20.00	7.373	-0.04579	7.41174	2.0
35.1886	69.6292	0.46	0.06	-30.00	-20.00	7.373	-0.04838	7.41172	2.0
35.2086	69.6292	0.46	0.06	-30.00	-20.00	7.373	-0.05097	7.41170	0.0
35.2286	69.6292	0.46	0.06	-30.00	-20.00	7.373	-0.05356	7.41168	0.0
35.2486	69.6292	0.46	0.06	-30.00	-20.00	7.373	-0.05614	7.41166	2.0
35.2686	69.6292	0.46	0.06	-30.00	-20.00	7.373	-0.05873	7.41164	2.0
35.2886	69.6292	0.46	0.06	-30.00	-20.00	7.373	-0.06132	7.41162	2.0
35.3086	69.6292	0.46	0.06	-30.00	-20.00	7.373	-0.06390	7.41160	0.0
35.3286	69.6292	0.46	0.06	-30.00	-20.00	7.373	-0.06649	7.41158	0.0
35.3486	69.6292	0.46	0.06	-30.00	-20.00	7.373	-0.06908	7.41155	0.0
35.3686	69.6292	0.46	0.06	-30.00	-20.00	7.373	-0.07167	7.41153	4.0
35.3886	69.6292	0.46	0.06	-30.00	-20.00	7.373	-0.07425	7.41150	4.0
35.4086	69.6292	0.46	0.06	-30.00	-20.00	7.373	-0.07684	7.41148	0.0
35.4286	69.6292	0.46	0.06	-30.00	-20.00	7.373	-0.07943	7.41145	0.0
35.4486	69.6292	0.46	0.06	-30.00	-20.00	7.373	-0.08201	7.41142	0.0
35.4686	69.6292	0.46	0.06	-30.00	-20.00	7.373	-0.08460	7.41139	0.0
35.4886	69.6292	0.46	0.06	-30.00	-20.00	7.373	-0.08719	7.41136	0.0
35.5086	69.6292	0.46	0.06	-30.00	-20.00	7.373	-0.08977	7.41133	0.0
35.5286	69.6292	0.46	0.06	-30.00	-20.00	7.373	-0.09236	7.41130	0.0
35.5486	69.6292	0.46	0.06	-30.00	-20.00	7.373	-0.09495	7.41127	0.0
35.5686	69.6292	0.46	0.06	-30.00	-20.00	7.373	-0.09754	7.41124	6.0
35.5886	69.6292	0.46	0.06	-30.00	-20.00	7.373	-0.10012	7.41120	2.0
35.6086	69.6292	0.46	0.06	-30.00	-20.00	7.373	-0.10271	7.41117	0.0
35.6286	69.6292	0.46	0.06	-30.00	-20.00	7.373	-0.10530	7.41113	2.0
35.6486	69.6292	0.46	0.06	-30.00	-20.00	7.373	-0.10788	7.41109	0.0

File: 1.5deg-2.0deg-rsm-2h30mins_11358-annealed_004_w-scans.dat
# filename: 1.5deg-2.0deg-rsm-2h30mins_11358-annealed_004.dat
# reflection: (004)
# type: rotated into a series of omega scans
# x-axis: Omega_2Theta
#
# Omega	2Theta	Phi  	Chi   	X    	Y    	Z    	q_para	q_perp	Intensity
# [deg]	[deg] 	[deg]	[deg] 	[mm] 	[mm] 	[mm] 	[nm-1]	[nm-1]	[counts/s]
32.2167	66.6682	-0.24	0.31	0.00	-23.01	7.396	0.13912	7.13267	0.0
32.2367	66.6682	-0.24	0.31	0.00	-23.01	7.396	0.13663	7.13271	0.0
32.2567	66.6682	-0.24	0.31	0.00	-23.01	7.396	0.13414	7.13276	0.0
32.2767	66.6682	-0.24	0.31	0.00	-23.01	7.396	0.13165	7.13281	2.0
32.2967	66.6682	-0.24	0.31	0.00	-23.01	7.396	0.12916	7.13285	0.0
32.3167	66.6682	-0.24	0.31	0.00	-23.01	7.396	0.12667	7.13290	0.0
32.3367	66.6682	-0.24	0.31	0.00	-23.01	7.396	0.12418	7.13294	0.0
32.3567	66.6682	-0.24	0.31	0.00	-23.01	7.396	0.12169	7.13298	0.0
32.3767	66.6682	-0.24	0.31	0.00	-23.01	7.396	0.11920	7.13303	2.0
32.3967	66.6682	-0.24	0.31	0.00	-23.01	7.396	0.11671	7.13307	0.0
32.4167	66.6682	-0.24	0.31	0.00	-23.01	7.396	0.11422	7.13311	4.0
32.4367	66.6682	-0.24	0.31	0.00	-23.01	7.396	0.11173	7.13315	6.0
32.4567	66.6682	-0.24	0.31	0.00	-23.01	7.396	0.10924	7.13319	0.0
32.4767	66.6682	-0.24	0.31	0.00	-23.01	7.396	0.10675	7.13322	0.0
32.4967	66.6682	-0.24	0.31	0.00	-23.01	7.396	0.10426	7.13326	2.0
32.5167	66.6682	-0.24	0.31	0.00	-23.01	7.396	0.10177	7.13330	2.0
32.5367	66.6682	-0.24	0.31	0.00	-23.01	7.396	0.09928	7.13333	2.0
32.5567	66.6682	-0.24	0.31	0.00	-23.01	7.396	0.09679	7.13337	2.0
32.5767	66.6682	-0.24	0.31	0.00	-23.01	7.396	0.09430	7.13340	2.0
32.5967	66.6682	-0.24	0.31	0.00	-23.01	7.396	0.09181	7.13343	0.0
32.6167	66.6682	-0.24	0.31	0.00	-23.01	7.396	0.08932	7.13346	2.0
32.6367	66.6682	-0.24	0.31	0.00	-23.01	7.396	0.08683	7.13349	0.0
32.6567	66.6682	-0.24	0.31	0.00	-23.01	7.396	0.08434	7.13352	0.0
32.6767	66.6682	-0.24	0.31	0.00	-23.01	7.396	0.08185	7.13355	0.0
32.6967	66.6682	-0.24	0.31	0.00	-23.01	7.396	0.07936	7.13358	2.0
32.7167	66.6682	-0.24	0.31	0.00	-23.01	7.396	0.07687	7.13361	4.0
32.7367	66.6682	-0.24	0.31	0.00	-23.01	7.396	0.07438	7.13363	0.0
32.7567	66.6682	-0.24	0.31	0.00	-23.01	7.396	0.07189	7.13366	0.0
32.7767	66.6682	-0.24	0.31	0.00	-23.01	7.396	0.06940	7.13368	0.0
32.7967	66.6682	-0.24	0.31	0.00	-23.01	7.396	0.06691	7.13371	0.0
32.8167	66.6682	-0.24	0.31	0.00	-23.01	7.396	0.06442	7.13373	0.0
32.8367	66.6682	-0.24	0.31	0.00	-23.01	7.396	0.06193	7.13375	2.0
32.8567	66.6682	-0.24	0.31	0.00	-23.01	7.396	0.05944	7.13377	2.0
32.8767	66.6682	-0.24	0.31	0.00	-23.01	7.396	0.05695	7.13379	2.0
32.8967	66.6682	-0.24	0.31	0.00	-23.01	7.396	0.05446	7.13381	0.0
32.9167	66.6682	-0.24	0.31	0.00	-23.01	7.396	0.05197	7.13383	0.0
32.9367	66.6682	-0.24	0.31	0.00	-23.01	7.396	0.04948	7.13385	6.0
32.9567	66.6682	-0.24	0.31	0.00	-23.01	7.396	0.04699	7.13387	2.0
32.9767	66.6682	-0.24	0.31	0.00	-23.01	7.396	0.04450	7.13388	0.0
32.9967	66.6682	-0.24	0.31	0.00	-23.01	7.396	0.04201	7.13390	0.0
33.0167	66.6682	-0.24	0.31	0.00	-23.01	7.396	0.03952	7.13391	0.0
33.0367	66.6682	-0.24	0.31	0.00	-23.01	7.396	0.03703	7.13393	0.0
33.0567	66.6682	-0.24	0.31	0.00	-23.01	7.396	0.03454	7.13394	2.0
33.0767	66.6682	-0.24	0.31	0.00	-23.01	7.396	0.03205	7.13395	2.0
33.0967	66.6682	-0.24	0.31	0.00	-23.01	7.396	0.02956	7.13396	2.0
33.1167	66.6682	-0.24	0.31	0.00	-23.01	7.396	0.02707	7.13397	0.0
33.1367	66.6682	-0.24	0.31	0.00	-23.01	7.396	0.02458	7.13398	2.0
33.1567	66.6682	-0.24	0.31	0.00	-23.01	7.396	0.02209	7.13399	2.0
33.1767	66.6682	-0.24	0.31	0.00	-23.01	7.396	0.01960	7.13400	0.0
33.1967	66.6682	-0.24	0.31	0.00	-23.01	7.396	0.01711	7.13400	4.0
33.2167	66.6682	-0.24	0.31	0.00	-23.01	7.396	0.01462	7.13401	0.0
33.2367	66.6682	-0.24	0.31	0.00	-23.01	7.396	0.01213	7.13401	2.0
33.2567	66.6682	-0.24	0.31	0.00	-23.01	7.396	0.00964	7.13402	0.0
33.2767	66.6682	-0.24	0.31	0.00	-23.01	7.396	0.00715	7.13402	0.0
33.2967	66.6682	-0.24	0.31	0.00	-23.01	7.396	0.00466	7.13402	2.0
33.3167	66.6682	-0.24	0.31	0.00	-23.01	7.396	0.00217	7.13402	0.0
33.3367	66.6682	-0.24	0.31	0.00	-23.01	7.396	-0.00032	7.13402	0.0
33.3567	66.6682	-0.24	0.31	0.00	-23.01	7.396	-0.00281	7.13402	4.0
33.3767	66.6682	-0.24	0.31	0.00	-23.01	7.396	-0.00530	7.13402	2.0
33.3967	66.6682	-0.24	0.31	0.00	-23.01	7.396	-0.00779	7.13402	0.0
33.4167	66.6682	-0.24	0.31	0.00	-23.01	7.396	-0.01028	7.13401	2.0
33.4367	66.6682	-0.24	0.31	0.00	-23.01	7.396	-0.01277	7.13401	2.0
33.4567	66.6682	-0.24	0.31	0.00	-23.01	7.396	-0.01527	7.13401	0.0
33.4767	66.6682	-0.24	0.31	0.00	-23.01	7.396	-0.01776	7.13400	0.0
33.4967	66.6682	-0.24	0.31	0.00	-23.01	7.396	-0.02025	7.13399	2.0
33.5167	66.6682	-0.24	0.31	0.00	-23.01	7.396	-0.02274	7.13399	2.0
33.5367	66.6682	-0.24	0.31	0.00	-23.01	7.396	-0.02523	7.13398	2.0
33.5567	66.6682	-0.24	0.31	0.00	-23.01	7.396	-0.02772	7.13397	0.0
33.5767	66.6682	-0.24	0.31	0.00	-23.01	7.396	-0.03021	7.13396	2.0
33.5967	66.6682	-0.24	0.31	0.00	-23.01	7.396	-0.03270	7.13395	2.0
33.6167	66.6682	-0.24	0.31	0.00	-23.01	7.396	-0.03519	7.13394	0.0
33.6367	66.6682	-0.24	0.31	0.00	-23.01	7.396	-0.03768	7.13392	2.0
33.6567	66.6682	-0.24	0.31	0.00	-23.01	7.396	-0.04017	7.13391	2.0
33.6767	66.6682	-0.24	0.31	0.00	-23.01	7.396	-0.04266	7.13389	2.0
33.6967	66.6682	-0.24	0.31	0.00	-23.01	7.396	-0.04515	7.13388	0.0
33.7167	66.6682	-0.24	0.31	0.00	-23.01	7.396	-0.04764	7.13386	0.0
33.7367	66.6682	-0.24	0.31	0.00	-23.01	7.396	-0.05013	7.13385	0.0
33.7567	66.6682	-0.24	0.31	0.00	-23.01	7.396	-0.05262	7.13383	4.0
33.7767	66.6682	-0.24	0.31	0.00	-23.01	7.396	-0.05511	7.13381	2.0
33.7967	66.6682	-0.24	0.31	0.00	-23.01	7.396	-0.05760	7.13379	0.0
33.8167	66.6682	-0.24	0.31	0.00	-23.01	7.396	-0.06009	7.13377	2.0
33.8367	66.6682	-0.24	0.31	0.00	-23.01	7.396	-0.06258	7.13375	0.0
33.8567	66.6682	-0.24	0.31	0.00	-23.01	7.396	-0.06507	7.13373	0.0
33.8767	66.6682	-0.24	0.31	0.00	-23.01	7.396	-0.06756	7.13370	2.0
33.8967	66.6682	-0.24	0.31	0.00	-23.01	7.396	-0.07005	7.13368	0.0
33.9167	66.6682	-0.24	0.31	0.00	-23.01	7.396	-0.07254	7.13365	0.0
33.9367	66.6682	-0.24	0.31	0.00	-23.01	7.396	-0.07503	7.13363	0.0
33.9567	66.6682	-0.24	0.31	0.00	-23.01	7.396	-0.07752	7.13360	0.0
33.9767	66.6682	-0.24	0.31	0.00	-23.01	7.396	-0.08001	7.13357	0.0
33.9967	66.6682	-0.24	0.31	0.00	-23.01	7.396	-0.08250	7.13354	0.0
34.0167	66.6682	-0.24	0.31	0.00	-23.01	7.396	-0.08499	7.13352	0.0
34.0367	66.6682	-0.24	0.31	0.00	-23.01	7.396	-0.08748	7.13349	0.0
34.0567	66.6682	-0.24	0.31	0.00	-23.01	7.396	-0.08997	7.13345	4.0
34.0767	66.6682	-0.24	0.31	0.00	-23.01	7.396	-0.09246	7.13342	2.0
34.0967	66.6682	-0.24	0.31	0.00	-23.01	7.396	-0.09495	7.13339	0.0
34.1167	66.6682	-0.24	0.31	0.00	-23.01	7.396	-0.09744	7.13336	2.0
34.1367	66.6682	-0.24	0.31	0.00	-23.01	7.396	-0.09993	7.13332	4.0
34.1567	66.6682	-0.24	0.31	0.00	-23.01	7.396	-0.10242	7.13329	2.0
34.1767	66.6682	-0.24	0.31	0.00	-23.01	7.396	-0.10491	7.13325	2.0
34.1967	66.6682	-0.24	0.31	0.00	-23.01	7.396	-0.10740	7.13321	2.0
34.2167	66.6682	-0.24	0.31	0.00	-23.01	7.396	-0.10989	7.13318	2.0

32.2267	66.6882	-0.24	0.31	0.00	-23.01	7.396	0.13916	7.13456	2.0
32.2467	66.6882	-0.24	0.31	0.00	-23.01	7.396	0.13667	7.13461	0.0
32.2667	66.6882	-0.24	0.31	0.00	-23.01	7.396	0.13418	7.13465	2.0
32.2867	66.6882	-0.24	0.31	0.00	-23.01	7.396	0.13169	7.13470	0.0
32.3067	66.6882	-0.24	0.31	0.00	-23.01	7.396	0.12920	7.13475	2.0
32.3267	66.6882	-0.24	0.31	0.00	-23.01	7.396	0.12671	7.13479	2.0
[...]
34.6167	69.6282	-0.24	0.31	0.00	-23.01	7.396	0.02554	7.41174	2.0
34.6367	69.6282	-0.24	0.31	0.00	-23.01	7.396	0.02295	7.41175	0.0
34.6567	69.6282	-0.24	0.31	0.00	-23.01	7.396	0.02036	7.41176	0.0
34.6767	69.6282	-0.24	0.31	0.00	-23.01	7.396	0.01777	7.41176	0.0
34.6967	69.6282	-0.24	0.31	0.00	-23.01	7.396	0.01519	7.41177	2.0
34.7167	69.6282	-0.24	0.31	0.00	-23.01	7.396	0.01260	7.41177	0.0
34.7367	69.6282	-0.24	0.31	0.00	-23.01	7.396	0.01001	7.41178	0.0
34.7567	69.6282	-0.24	0.31	0.00	-23.01	7.396	0.00743	7.41178	2.0
34.7767	69.6282	-0.24	0.31	0.00	-23.01	7.396	0.00484	7.41178	4.0
34.7967	69.6282	-0.24	0.31	0.00	-23.01	7.396	0.00225	7.41178	0.0
34.8167	69.6282	-0.24	0.31	0.00	-23.01	7.396	-0.00034	7.41178	2.0
34.8367	69.6282	-0.24	0.31	0.00	-23.01	7.396	-0.00292	7.41178	2.0
34.8567	69.6282	-0.24	0.31	0.00	-23.01	7.396	-0.00551	7.41178	0.0
34.8767	69.6282	-0.24	0.31	0.00	-23.01	7.396	-0.00810	7.41178	0.0
34.8967	69.6282	-0.24	0.31	0.00	-23.01	7.396	-0.01069	7.41178	2.0
34.9167	69.6282	-0.24	0.31	0.00	-23.01	7.396	-0.01327	7.41177	14.0
34.9367	69.6282	-0.24	0.31	0.00	-23.01	7.396	-0.01586	7.41177	6.0
34.9567	69.6282	-0.24	0.31	0.00	-23.01	7.396	-0.01845	7.41176	2.0
34.9767	69.6282	-0.24	0.31	0.00	-23.01	7.396	-0.02103	7.41175	4.0
34.9967	69.6282	-0.24	0.31	0.00	-23.01	7.396	-0.02362	7.41175	2.0
35.0167	69.6282	-0.24	0.31	0.00	-23.01	7.396	-0.02621	7.41174	0.0
35.0367	69.6282	-0.24	0.31	0.00	-23.01	7.396	-0.02880	7.41173	0.0
35.0567	69.6282	-0.24	0.31	0.00	-23.01	7.396	-0.03138	7.41172	0.0
35.0767	69.6282	-0.24	0.31	0.00	-23.01	7.396	-0.03397	7.41171	0.0
35.0967	69.6282	-0.24	0.31	0.00	-23.01	7.396	-0.03656	7.41169	0.0
35.1167	69.6282	-0.24	0.31	0.00	-23.01	7.396	-0.03914	7.41168	4.0
35.1367	69.6282	-0.24	0.31	0.00	-23.01	7.396	-0.04173	7.41167	0.0
35.1567	69.6282	-0.24	0.31	0.00	-23.01	7.396	-0.04432	7.41165	0.0
35.1767	69.6282	-0.24	0.31	0.00	-23.01	7.396	-0.04691	7.41164	0.0
35.1967	69.6282	-0.24	0.31	0.00	-23.01	7.396	-0.04949	7.41162	2.0
35.2167	69.6282	-0.24	0.31	0.00	-23.01	7.396	-0.05208	7.41160	0.0
35.2367	69.6282	-0.24	0.31	0.00	-23.01	7.396	-0.05467	7.41158	0.0
35.2567	69.6282	-0.24	0.31	0.00	-23.01	7.396	-0.05725	7.41156	4.0
35.2767	69.6282	-0.24	0.31	0.00	-23.01	7.396	-0.05984	7.41154	4.0
35.2967	69.6282	-0.24	0.31	0.00	-23.01	7.396	-0.06243	7.41152	0.0
35.3167	69.6282	-0.24	0.31	0.00	-23.01	7.396	-0.06502	7.41150	0.0
35.3367	69.6282	-0.24	0.31	0.00	-23.01	7.396	-0.06760	7.41148	2.0
35.3567	69.6282	-0.24	0.31	0.00	-23.01	7.396	-0.07019	7.41145	2.0
35.3767	69.6282	-0.24	0.31	0.00	-23.01	7.396	-0.07278	7.41143	0.0
35.3967	69.6282	-0.24	0.31	0.00	-23.01	7.396	-0.07536	7.41140	0.0
35.4167	69.6282	-0.24	0.31	0.00	-23.01	7.396	-0.07795	7.41137	0.0
35.4367	69.6282	-0.24	0.31	0.00	-23.01	7.396	-0.08054	7.41135	2.0
35.4567	69.6282	-0.24	0.31	0.00	-23.01	7.396	-0.08313	7.41132	2.0
35.4767	69.6282	-0.24	0.31	0.00	-23.01	7.396	-0.08571	7.41129	0.0
35.4967	69.6282	-0.24	0.31	0.00	-23.01	7.396	-0.08830	7.41126	0.0
35.5167	69.6282	-0.24	0.31	0.00	-23.01	7.396	-0.09089	7.41123	2.0
35.5367	69.6282	-0.24	0.31	0.00	-23.01	7.396	-0.09347	7.41119	4.0
35.5567	69.6282	-0.24	0.31	0.00	-23.01	7.396	-0.09606	7.41116	0.0
35.5767	69.6282	-0.24	0.31	0.00	-23.01	7.396	-0.09865	7.41113	0.0
35.5967	69.6282	-0.24	0.31	0.00	-23.01	7.396	-0.10123	7.41109	2.0
35.6167	69.6282	-0.24	0.31	0.00	-23.01	7.396	-0.10382	7.41106	2.0
35.6367	69.6282	-0.24	0.31	0.00	-23.01	7.396	-0.10641	7.41102	0.0
35.6567	69.6282	-0.24	0.31	0.00	-23.01	7.396	-0.10899	7.41098	0.0
35.6767	69.6282	-0.24	0.31	0.00	-23.01	7.396	-0.11158	7.41094	2.0
35.6967	69.6282	-0.24	0.31	0.00	-23.01	7.396	-0.11417	7.41090	4.0