Folder: Thesis_XRD/Data/Omega (part 3)

File: 1.5deg-2.0deg-rsm-2h30mins_11358-as-grown_004_w-scans.dat
# filename: 1.5deg-2.0deg-rsm-2h30mins_11358-as-grown_004.dat
# reflection: (004)
# type: rotated into a series of omega scans
# x-axis: Omega_2Theta
#
# Omega	2Theta	Phi  	Chi   	X    	Y    	Z    	q_para	q_perp	Intensity
# [deg]	[deg] 	[deg]	[deg] 	[mm] 	[mm] 	[mm] 	[nm-1]	[nm-1]	[counts/s]
32.1494	66.6696	2.82	-0.23	10.00	-20.00	7.326	0.14759	7.13263	0.0
32.1694	66.6696	2.82	-0.23	10.00	-20.00	7.326	0.14510	7.13268	4.0
32.1894	66.6696	2.82	-0.23	10.00	-20.00	7.326	0.14261	7.13273	0.0
32.2094	66.6696	2.82	-0.23	10.00	-20.00	7.326	0.14012	7.13278	2.0
32.2294	66.6696	2.82	-0.23	10.00	-20.00	7.326	0.13763	7.13283	0.0
32.2494	66.6696	2.82	-0.23	10.00	-20.00	7.326	0.13514	7.13287	0.0
32.2694	66.6696	2.82	-0.23	10.00	-20.00	7.326	0.13265	7.13292	2.0
32.2894	66.6696	2.82	-0.23	10.00	-20.00	7.326	0.13016	7.13297	0.0
32.3094	66.6696	2.82	-0.23	10.00	-20.00	7.326	0.12767	7.13301	0.0
32.3294	66.6696	2.82	-0.23	10.00	-20.00	7.326	0.12518	7.13306	2.0
32.3494	66.6696	2.82	-0.23	10.00	-20.00	7.326	0.12269	7.13310	0.0
32.3694	66.6696	2.82	-0.23	10.00	-20.00	7.326	0.12020	7.13314	0.0
32.3894	66.6696	2.82	-0.23	10.00	-20.00	7.326	0.11771	7.13318	0.0
32.4094	66.6696	2.82	-0.23	10.00	-20.00	7.326	0.11522	7.13322	0.0
32.4294	66.6696	2.82	-0.23	10.00	-20.00	7.326	0.11273	7.13326	0.0
32.4494	66.6696	2.82	-0.23	10.00	-20.00	7.326	0.11024	7.13330	0.0
32.4694	66.6696	2.82	-0.23	10.00	-20.00	7.326	0.10775	7.13334	0.0
32.4894	66.6696	2.82	-0.23	10.00	-20.00	7.326	0.10526	7.13338	0.0
32.5094	66.6696	2.82	-0.23	10.00	-20.00	7.326	0.10277	7.13341	0.0
32.5294	66.6696	2.82	-0.23	10.00	-20.00	7.326	0.10028	7.13345	2.0
32.5494	66.6696	2.82	-0.23	10.00	-20.00	7.326	0.09779	7.13348	0.0
32.5694	66.6696	2.82	-0.23	10.00	-20.00	7.326	0.09530	7.13352	0.0
32.5894	66.6696	2.82	-0.23	10.00	-20.00	7.326	0.09281	7.13355	2.0
32.6094	66.6696	2.82	-0.23	10.00	-20.00	7.326	0.09032	7.13358	2.0
32.6294	66.6696	2.82	-0.23	10.00	-20.00	7.326	0.08783	7.13361	0.0
32.6494	66.6696	2.82	-0.23	10.00	-20.00	7.326	0.08534	7.13364	0.0
32.6694	66.6696	2.82	-0.23	10.00	-20.00	7.326	0.08285	7.13367	2.0
32.6894	66.6696	2.82	-0.23	10.00	-20.00	7.326	0.08036	7.13370	0.0
32.7094	66.6696	2.82	-0.23	10.00	-20.00	7.326	0.07787	7.13373	0.0
32.7294	66.6696	2.82	-0.23	10.00	-20.00	7.326	0.07538	7.13376	0.0
32.7494	66.6696	2.82	-0.23	10.00	-20.00	7.326	0.07289	7.13378	2.0
32.7694	66.6696	2.82	-0.23	10.00	-20.00	7.326	0.07040	7.13381	2.0
32.7894	66.6696	2.82	-0.23	10.00	-20.00	7.326	0.06791	7.13383	4.0
32.8094	66.6696	2.82	-0.23	10.00	-20.00	7.326	0.06542	7.13385	4.0
32.8294	66.6696	2.82	-0.23	10.00	-20.00	7.326	0.06293	7.13388	0.0
32.8494	66.6696	2.82	-0.23	10.00	-20.00	7.326	0.06044	7.13390	0.0
32.8694	66.6696	2.82	-0.23	10.00	-20.00	7.326	0.05795	7.13392	2.0
32.8894	66.6696	2.82	-0.23	10.00	-20.00	7.326	0.05546	7.13394	0.0
32.9094	66.6696	2.82	-0.23	10.00	-20.00	7.326	0.05297	7.13396	0.0
32.9294	66.6696	2.82	-0.23	10.00	-20.00	7.326	0.05048	7.13398	0.0
32.9494	66.6696	2.82	-0.23	10.00	-20.00	7.326	0.04799	7.13399	0.0
32.9694	66.6696	2.82	-0.23	10.00	-20.00	7.326	0.04550	7.13401	0.0
32.9894	66.6696	2.82	-0.23	10.00	-20.00	7.326	0.04301	7.13402	2.0
33.0094	66.6696	2.82	-0.23	10.00	-20.00	7.326	0.04052	7.13404	0.0
33.0294	66.6696	2.82	-0.23	10.00	-20.00	7.326	0.03803	7.13405	0.0
33.0494	66.6696	2.82	-0.23	10.00	-20.00	7.326	0.03554	7.13407	2.0
33.0694	66.6696	2.82	-0.23	10.00	-20.00	7.326	0.03305	7.13408	2.0
33.0894	66.6696	2.82	-0.23	10.00	-20.00	7.326	0.03056	7.13409	4.0
33.1094	66.6696	2.82	-0.23	10.00	-20.00	7.326	0.02807	7.13410	0.0
33.1294	66.6696	2.82	-0.23	10.00	-20.00	7.326	0.02558	7.13411	2.0
33.1494	66.6696	2.82	-0.23	10.00	-20.00	7.326	0.02308	7.13412	0.0
33.1694	66.6696	2.82	-0.23	10.00	-20.00	7.326	0.02059	7.13412	0.0
33.1894	66.6696	2.82	-0.23	10.00	-20.00	7.326	0.01810	7.13413	4.0
33.2094	66.6696	2.82	-0.23	10.00	-20.00	7.326	0.01561	7.13414	0.0
33.2294	66.6696	2.82	-0.23	10.00	-20.00	7.326	0.01312	7.13414	0.0
33.2494	66.6696	2.82	-0.23	10.00	-20.00	7.326	0.01063	7.13415	0.0
33.2694	66.6696	2.82	-0.23	10.00	-20.00	7.326	0.00814	7.13415	4.0
33.2894	66.6696	2.82	-0.23	10.00	-20.00	7.326	0.00565	7.13415	0.0
33.3094	66.6696	2.82	-0.23	10.00	-20.00	7.326	0.00316	7.13415	0.0
33.3294	66.6696	2.82	-0.23	10.00	-20.00	7.326	0.00067	7.13415	2.0
33.3494	66.6696	2.82	-0.23	10.00	-20.00	7.326	-0.00182	7.13415	2.0
33.3694	66.6696	2.82	-0.23	10.00	-20.00	7.326	-0.00431	7.13415	0.0
33.3894	66.6696	2.82	-0.23	10.00	-20.00	7.326	-0.00680	7.13415	6.0
33.4094	66.6696	2.82	-0.23	10.00	-20.00	7.326	-0.00929	7.13415	0.0
33.4294	66.6696	2.82	-0.23	10.00	-20.00	7.326	-0.01178	7.13414	2.0
33.4494	66.6696	2.82	-0.23	10.00	-20.00	7.326	-0.01427	7.13414	0.0
33.4694	66.6696	2.82	-0.23	10.00	-20.00	7.326	-0.01676	7.13413	0.0
33.4894	66.6696	2.82	-0.23	10.00	-20.00	7.326	-0.01925	7.13413	4.0
33.5094	66.6696	2.82	-0.23	10.00	-20.00	7.326	-0.02174	7.13412	2.0
33.5294	66.6696	2.82	-0.23	10.00	-20.00	7.326	-0.02423	7.13411	0.0
33.5494	66.6696	2.82	-0.23	10.00	-20.00	7.326	-0.02672	7.13410	4.0
33.5694	66.6696	2.82	-0.23	10.00	-20.00	7.326	-0.02921	7.13409	0.0
33.5894	66.6696	2.82	-0.23	10.00	-20.00	7.326	-0.03170	7.13408	2.0
33.6094	66.6696	2.82	-0.23	10.00	-20.00	7.326	-0.03419	7.13407	0.0
33.6294	66.6696	2.82	-0.23	10.00	-20.00	7.326	-0.03668	7.13406	2.0
33.6494	66.6696	2.82	-0.23	10.00	-20.00	7.326	-0.03917	7.13405	0.0
33.6694	66.6696	2.82	-0.23	10.00	-20.00	7.326	-0.04166	7.13403	2.0
33.6894	66.6696	2.82	-0.23	10.00	-20.00	7.326	-0.04415	7.13402	0.0
33.7094	66.6696	2.82	-0.23	10.00	-20.00	7.326	-0.04664	7.13400	4.0
33.7294	66.6696	2.82	-0.23	10.00	-20.00	7.326	-0.04913	7.13399	2.0
33.7494	66.6696	2.82	-0.23	10.00	-20.00	7.326	-0.05162	7.13397	0.0
33.7694	66.6696	2.82	-0.23	10.00	-20.00	7.326	-0.05411	7.13395	2.0
33.7894	66.6696	2.82	-0.23	10.00	-20.00	7.326	-0.05660	7.13393	4.0
33.8094	66.6696	2.82	-0.23	10.00	-20.00	7.326	-0.05909	7.13391	4.0
33.8294	66.6696	2.82	-0.23	10.00	-20.00	7.326	-0.06158	7.13389	0.0
33.8494	66.6696	2.82	-0.23	10.00	-20.00	7.326	-0.06407	7.13387	0.0
33.8694	66.6696	2.82	-0.23	10.00	-20.00	7.326	-0.06656	7.13384	2.0
33.8894	66.6696	2.82	-0.23	10.00	-20.00	7.326	-0.06905	7.13382	4.0
33.9094	66.6696	2.82	-0.23	10.00	-20.00	7.326	-0.07154	7.13380	0.0
33.9294	66.6696	2.82	-0.23	10.00	-20.00	7.326	-0.07403	7.13377	0.0
33.9494	66.6696	2.82	-0.23	10.00	-20.00	7.326	-0.07653	7.13374	0.0
33.9694	66.6696	2.82	-0.23	10.00	-20.00	7.326	-0.07902	7.13372	0.0
33.9894	66.6696	2.82	-0.23	10.00	-20.00	7.326	-0.08151	7.13369	0.0
34.0094	66.6696	2.82	-0.23	10.00	-20.00	7.326	-0.08400	7.13366	0.0
34.0294	66.6696	2.82	-0.23	10.00	-20.00	7.326	-0.08649	7.13363	0.0
34.0494	66.6696	2.82	-0.23	10.00	-20.00	7.326	-0.08898	7.13360	2.0
34.0694	66.6696	2.82	-0.23	10.00	-20.00	7.326	-0.09147	7.13357	0.0
34.0894	66.6696	2.82	-0.23	10.00	-20.00	7.326	-0.09396	7.13354	0.0
34.1094	66.6696	2.82	-0.23	10.00	-20.00	7.326	-0.09645	7.13350	0.0
34.1294	66.6696	2.82	-0.23	10.00	-20.00	7.326	-0.09894	7.13347	2.0
34.1494	66.6696	2.82	-0.23	10.00	-20.00	7.326	-0.10143	7.13343	0.0

32.1594	66.6896	2.82	-0.23	10.00	-20.00	7.326	0.14763	7.13452	0.0
32.1794	66.6896	2.82	-0.23	10.00	-20.00	7.326	0.14514	7.13457	2.0
32.1994	66.6896	2.82	-0.23	10.00	-20.00	7.326	0.14265	7.13462	0.0
32.2194	66.6896	2.82	-0.23	10.00	-20.00	7.326	0.14016	7.13467	0.0
32.2394	66.6896	2.82	-0.23	10.00	-20.00	7.326	0.13767	7.13472	0.0
[...]
34.5694	69.6296	2.82	-0.23	10.00	-20.00	7.326	0.03175	7.41185	8.0
34.5894	69.6296	2.82	-0.23	10.00	-20.00	7.326	0.02916	7.41186	2.0
34.6094	69.6296	2.82	-0.23	10.00	-20.00	7.326	0.02657	7.41187	2.0
34.6294	69.6296	2.82	-0.23	10.00	-20.00	7.326	0.02398	7.41188	2.0
34.6494	69.6296	2.82	-0.23	10.00	-20.00	7.326	0.02140	7.41188	2.0
34.6694	69.6296	2.82	-0.23	10.00	-20.00	7.326	0.01881	7.41189	2.0
34.6894	69.6296	2.82	-0.23	10.00	-20.00	7.326	0.01622	7.41190	0.0
34.7094	69.6296	2.82	-0.23	10.00	-20.00	7.326	0.01363	7.41190	2.0
34.7294	69.6296	2.82	-0.23	10.00	-20.00	7.326	0.01105	7.41191	2.0
34.7494	69.6296	2.82	-0.23	10.00	-20.00	7.326	0.00846	7.41191	6.0
34.7694	69.6296	2.82	-0.23	10.00	-20.00	7.326	0.00587	7.41191	4.0
34.7894	69.6296	2.82	-0.23	10.00	-20.00	7.326	0.00329	7.41191	0.0
34.8094	69.6296	2.82	-0.23	10.00	-20.00	7.326	0.00070	7.41191	0.0
34.8294	69.6296	2.82	-0.23	10.00	-20.00	7.326	-0.00189	7.41191	2.0
34.8494	69.6296	2.82	-0.23	10.00	-20.00	7.326	-0.00448	7.41191	0.0
34.8694	69.6296	2.82	-0.23	10.00	-20.00	7.326	-0.00706	7.41191	4.0
34.8894	69.6296	2.82	-0.23	10.00	-20.00	7.326	-0.00965	7.41191	4.0
34.9094	69.6296	2.82	-0.23	10.00	-20.00	7.326	-0.01224	7.41190	0.0
34.9294	69.6296	2.82	-0.23	10.00	-20.00	7.326	-0.01482	7.41190	0.0
34.9494	69.6296	2.82	-0.23	10.00	-20.00	7.326	-0.01741	7.41189	0.0
34.9694	69.6296	2.82	-0.23	10.00	-20.00	7.326	-0.02000	7.41189	2.0
34.9894	69.6296	2.82	-0.23	10.00	-20.00	7.326	-0.02259	7.41188	0.0
35.0094	69.6296	2.82	-0.23	10.00	-20.00	7.326	-0.02517	7.41187	2.0
35.0294	69.6296	2.82	-0.23	10.00	-20.00	7.326	-0.02776	7.41186	2.0
35.0494	69.6296	2.82	-0.23	10.00	-20.00	7.326	-0.03035	7.41185	4.0
35.0694	69.6296	2.82	-0.23	10.00	-20.00	7.326	-0.03294	7.41184	0.0
35.0894	69.6296	2.82	-0.23	10.00	-20.00	7.326	-0.03552	7.41183	0.0
35.1094	69.6296	2.82	-0.23	10.00	-20.00	7.326	-0.03811	7.41182	0.0
35.1294	69.6296	2.82	-0.23	10.00	-20.00	7.326	-0.04070	7.41180	4.0
35.1494	69.6296	2.82	-0.23	10.00	-20.00	7.326	-0.04328	7.41179	0.0
35.1694	69.6296	2.82	-0.23	10.00	-20.00	7.326	-0.04587	7.41177	0.0
35.1894	69.6296	2.82	-0.23	10.00	-20.00	7.326	-0.04846	7.41176	0.0
35.2094	69.6296	2.82	-0.23	10.00	-20.00	7.326	-0.05105	7.41174	0.0
35.2294	69.6296	2.82	-0.23	10.00	-20.00	7.326	-0.05363	7.41172	2.0
35.2494	69.6296	2.82	-0.23	10.00	-20.00	7.326	-0.05622	7.41170	0.0
35.2694	69.6296	2.82	-0.23	10.00	-20.00	7.326	-0.05881	7.41168	2.0
35.2894	69.6296	2.82	-0.23	10.00	-20.00	7.326	-0.06139	7.41166	2.0
35.3094	69.6296	2.82	-0.23	10.00	-20.00	7.326	-0.06398	7.41164	4.0
35.3294	69.6296	2.82	-0.23	10.00	-20.00	7.326	-0.06657	7.41162	4.0
35.3494	69.6296	2.82	-0.23	10.00	-20.00	7.326	-0.06916	7.41159	0.0
35.3694	69.6296	2.82	-0.23	10.00	-20.00	7.326	-0.07174	7.41157	2.0
35.3894	69.6296	2.82	-0.23	10.00	-20.00	7.326	-0.07433	7.41154	2.0
35.4094	69.6296	2.82	-0.23	10.00	-20.00	7.326	-0.07692	7.41151	0.0
35.4294	69.6296	2.82	-0.23	10.00	-20.00	7.326	-0.07950	7.41149	0.0
35.4494	69.6296	2.82	-0.23	10.00	-20.00	7.326	-0.08209	7.41146	4.0
35.4694	69.6296	2.82	-0.23	10.00	-20.00	7.326	-0.08468	7.41143	0.0
35.4894	69.6296	2.82	-0.23	10.00	-20.00	7.326	-0.08727	7.41140	0.0
35.5094	69.6296	2.82	-0.23	10.00	-20.00	7.326	-0.08985	7.41137	2.0
35.5294	69.6296	2.82	-0.23	10.00	-20.00	7.326	-0.09244	7.41134	0.0
35.5494	69.6296	2.82	-0.23	10.00	-20.00	7.326	-0.09503	7.41130	0.0
35.5694	69.6296	2.82	-0.23	10.00	-20.00	7.326	-0.09761	7.41127	0.0
35.5894	69.6296	2.82	-0.23	10.00	-20.00	7.326	-0.10020	7.41124	0.0
35.6094	69.6296	2.82	-0.23	10.00	-20.00	7.326	-0.10279	7.41120	2.0
35.6294	69.6296	2.82	-0.23	10.00	-20.00	7.326	-0.10537	7.41116	0.0

File: 1.5deg-2.0deg-rsm-2h30mins_11371-annealed_004_w-scans.dat
# filename: 1.5deg-2.0deg-rsm-2h30mins_11371-annealed_004.dat
# reflection: (004)
# type: rotated into a series of omega scans
# x-axis: Omega_2Theta
#
# Omega	2Theta	Phi  	Chi   	X    	Y    	Z    	q_para	q_perp	Intensity
# [deg]	[deg] 	[deg]	[deg] 	[mm] 	[mm] 	[mm] 	[nm-1]	[nm-1]	[counts/s]
32.5142	66.6594	-0.92	-0.92	0.00	17.53	7.303	0.10152	7.13247	2.0
32.5342	66.6594	-0.92	-0.92	0.00	17.53	7.303	0.09903	7.13250	0.0
32.5542	66.6594	-0.92	-0.92	0.00	17.53	7.303	0.09654	7.13254	2.0
32.5742	66.6594	-0.92	-0.92	0.00	17.53	7.303	0.09406	7.13257	0.0
32.5942	66.6594	-0.92	-0.92	0.00	17.53	7.303	0.09157	7.13260	0.0
32.6142	66.6594	-0.92	-0.92	0.00	17.53	7.303	0.08908	7.13263	0.0
32.6342	66.6594	-0.92	-0.92	0.00	17.53	7.303	0.08659	7.13266	0.0
32.6542	66.6594	-0.92	-0.92	0.00	17.53	7.303	0.08410	7.13269	2.0
32.6742	66.6594	-0.92	-0.92	0.00	17.53	7.303	0.08161	7.13272	0.0
32.6942	66.6594	-0.92	-0.92	0.00	17.53	7.303	0.07912	7.13275	0.0
32.7142	66.6594	-0.92	-0.92	0.00	17.53	7.303	0.07663	7.13278	2.0
32.7342	66.6594	-0.92	-0.92	0.00	17.53	7.303	0.07414	7.13280	0.0
32.7542	66.6594	-0.92	-0.92	0.00	17.53	7.303	0.07165	7.13283	0.0
32.7742	66.6594	-0.92	-0.92	0.00	17.53	7.303	0.06916	7.13285	0.0
32.7942	66.6594	-0.92	-0.92	0.00	17.53	7.303	0.06667	7.13288	0.0
32.8142	66.6594	-0.92	-0.92	0.00	17.53	7.303	0.06418	7.13290	4.0
32.8342	66.6594	-0.92	-0.92	0.00	17.53	7.303	0.06169	7.13292	0.0
32.8542	66.6594	-0.92	-0.92	0.00	17.53	7.303	0.05920	7.13294	0.0
32.8742	66.6594	-0.92	-0.92	0.00	17.53	7.303	0.05671	7.13296	0.0
32.8942	66.6594	-0.92	-0.92	0.00	17.53	7.303	0.05422	7.13298	0.0
32.9142	66.6594	-0.92	-0.92	0.00	17.53	7.303	0.05173	7.13300	4.0
32.9342	66.6594	-0.92	-0.92	0.00	17.53	7.303	0.04924	7.13302	2.0
32.9542	66.6594	-0.92	-0.92	0.00	17.53	7.303	0.04675	7.13304	0.0
32.9742	66.6594	-0.92	-0.92	0.00	17.53	7.303	0.04426	7.13305	0.0
32.9942	66.6594	-0.92	-0.92	0.00	17.53	7.303	0.04177	7.13307	0.0
33.0142	66.6594	-0.92	-0.92	0.00	17.53	7.303	0.03928	7.13308	0.0
33.0342	66.6594	-0.92	-0.92	0.00	17.53	7.303	0.03679	7.13309	0.0
33.0542	66.6594	-0.92	-0.92	0.00	17.53	7.303	0.03430	7.13311	0.0
33.0742	66.6594	-0.92	-0.92	0.00	17.53	7.303	0.03181	7.13312	0.0
33.0942	66.6594	-0.92	-0.92	0.00	17.53	7.303	0.02932	7.13313	2.0
33.1142	66.6594	-0.92	-0.92	0.00	17.53	7.303	0.02683	7.13314	0.0
33.1342	66.6594	-0.92	-0.92	0.00	17.53	7.303	0.02434	7.13315	0.0
33.1542	66.6594	-0.92	-0.92	0.00	17.53	7.303	0.02185	7.13316	2.0
33.1742	66.6594	-0.92	-0.92	0.00	17.53	7.303	0.01936	7.13316	0.0
33.1942	66.6594	-0.92	-0.92	0.00	17.53	7.303	0.01687	7.13317	4.0
33.2142	66.6594	-0.92	-0.92	0.00	17.53	7.303	0.01438	7.13317	4.0
33.2342	66.6594	-0.92	-0.92	0.00	17.53	7.303	0.01189	7.13318	0.0
33.2542	66.6594	-0.92	-0.92	0.00	17.53	7.303	0.00940	7.13318	2.0
33.2742	66.6594	-0.92	-0.92	0.00	17.53	7.303	0.00691	7.13319	0.0
33.2942	66.6594	-0.92	-0.92	0.00	17.53	7.303	0.00442	7.13319	0.0
33.3142	66.6594	-0.92	-0.92	0.00	17.53	7.303	0.00193	7.13319	0.0
33.3342	66.6594	-0.92	-0.92	0.00	17.53	7.303	-0.00056	7.13319	0.0
33.3542	66.6594	-0.92	-0.92	0.00	17.53	7.303	-0.00305	7.13319	0.0
33.3742	66.6594	-0.92	-0.92	0.00	17.53	7.303	-0.00554	7.13319	0.0
33.3942	66.6594	-0.92	-0.92	0.00	17.53	7.303	-0.00803	7.13318	2.0
33.4142	66.6594	-0.92	-0.92	0.00	17.53	7.303	-0.01052	7.13318	0.0
33.4342	66.6594	-0.92	-0.92	0.00	17.53	7.303	-0.01301	7.13318	6.0
33.4542	66.6594	-0.92	-0.92	0.00	17.53	7.303	-0.01550	7.13317	0.0
33.4742	66.6594	-0.92	-0.92	0.00	17.53	7.303	-0.01799	7.13317	0.0
33.4942	66.6594	-0.92	-0.92	0.00	17.53	7.303	-0.02048	7.13316	2.0
33.5142	66.6594	-0.92	-0.92	0.00	17.53	7.303	-0.02297	7.13315	0.0
33.5342	66.6594	-0.92	-0.92	0.00	17.53	7.303	-0.02546	7.13314	0.0
33.5542	66.6594	-0.92	-0.92	0.00	17.53	7.303	-0.02795	7.13313	0.0
33.5742	66.6594	-0.92	-0.92	0.00	17.53	7.303	-0.03044	7.13312	0.0
33.5942	66.6594	-0.92	-0.92	0.00	17.53	7.303	-0.03293	7.13311	0.0
33.6142	66.6594	-0.92	-0.92	0.00	17.53	7.303	-0.03542	7.13310	2.0
33.6342	66.6594	-0.92	-0.92	0.00	17.53	7.303	-0.03791	7.13309	2.0
33.6542	66.6594	-0.92	-0.92	0.00	17.53	7.303	-0.04040	7.13307	0.0
33.6742	66.6594	-0.92	-0.92	0.00	17.53	7.303	-0.04289	7.13306	0.0
33.6942	66.6594	-0.92	-0.92	0.00	17.53	7.303	-0.04538	7.13304	0.0
33.7142	66.6594	-0.92	-0.92	0.00	17.53	7.303	-0.04787	7.13303	0.0
33.7342	66.6594	-0.92	-0.92	0.00	17.53	7.303	-0.05036	7.13301	0.0
33.7542	66.6594	-0.92	-0.92	0.00	17.53	7.303	-0.05285	7.13299	0.0
33.7742	66.6594	-0.92	-0.92	0.00	17.53	7.303	-0.05534	7.13297	0.0
33.7942	66.6594	-0.92	-0.92	0.00	17.53	7.303	-0.05783	7.13295	0.0
33.8142	66.6594	-0.92	-0.92	0.00	17.53	7.303	-0.06032	7.13293	0.0
33.8342	66.6594	-0.92	-0.92	0.00	17.53	7.303	-0.06281	7.13291	0.0
33.8542	66.6594	-0.92	-0.92	0.00	17.53	7.303	-0.06530	7.13289	4.0
33.8742	66.6594	-0.92	-0.92	0.00	17.53	7.303	-0.06779	7.13287	0.0
33.8942	66.6594	-0.92	-0.92	0.00	17.53	7.303	-0.07028	7.13284	0.0
33.9142	66.6594	-0.92	-0.92	0.00	17.53	7.303	-0.07277	7.13282	2.0
33.9342	66.6594	-0.92	-0.92	0.00	17.53	7.303	-0.07526	7.13279	2.0
33.9542	66.6594	-0.92	-0.92	0.00	17.53	7.303	-0.07775	7.13277	4.0
33.9742	66.6594	-0.92	-0.92	0.00	17.53	7.303	-0.08024	7.13274	0.0
33.9942	66.6594	-0.92	-0.92	0.00	17.53	7.303	-0.08273	7.13271	2.0
34.0142	66.6594	-0.92	-0.92	0.00	17.53	7.303	-0.08522	7.13268	2.0
34.0342	66.6594	-0.92	-0.92	0.00	17.53	7.303	-0.08771	7.13265	0.0
34.0542	66.6594	-0.92	-0.92	0.00	17.53	7.303	-0.09020	7.13262	2.0
34.0742	66.6594	-0.92	-0.92	0.00	17.53	7.303	-0.09269	7.13259	0.0
34.0942	66.6594	-0.92	-0.92	0.00	17.53	7.303	-0.09518	7.13255	0.0
34.1142	66.6594	-0.92	-0.92	0.00	17.53	7.303	-0.09767	7.13252	2.0
34.1342	66.6594	-0.92	-0.92	0.00	17.53	7.303	-0.10016	7.13249	6.0
34.1542	66.6594	-0.92	-0.92	0.00	17.53	7.303	-0.10264	7.13245	0.0
34.1742	66.6594	-0.92	-0.92	0.00	17.53	7.303	-0.10513	7.13241	2.0
34.1942	66.6594	-0.92	-0.92	0.00	17.53	7.303	-0.10762	7.13238	0.0
34.2142	66.6594	-0.92	-0.92	0.00	17.53	7.303	-0.11011	7.13234	2.0
34.2342	66.6594	-0.92	-0.92	0.00	17.53	7.303	-0.11260	7.13230	4.0
34.2542	66.6594	-0.92	-0.92	0.00	17.53	7.303	-0.11509	7.13226	0.0
34.2742	66.6594	-0.92	-0.92	0.00	17.53	7.303	-0.11758	7.13222	2.0
34.2942	66.6594	-0.92	-0.92	0.00	17.53	7.303	-0.12007	7.13218	0.0
34.3142	66.6594	-0.92	-0.92	0.00	17.53	7.303	-0.12256	7.13214	0.0
34.3342	66.6594	-0.92	-0.92	0.00	17.53	7.303	-0.12505	7.13209	2.0
34.3542	66.6594	-0.92	-0.92	0.00	17.53	7.303	-0.12754	7.13205	0.0
34.3742	66.6594	-0.92	-0.92	0.00	17.53	7.303	-0.13003	7.13200	0.0
34.3942	66.6594	-0.92	-0.92	0.00	17.53	7.303	-0.13252	7.13196	0.0
34.4142	66.6594	-0.92	-0.92	0.00	17.53	7.303	-0.13501	7.13191	0.0
34.4342	66.6594	-0.92	-0.92	0.00	17.53	7.303	-0.13750	7.13186	0.0
34.4542	66.6594	-0.92	-0.92	0.00	17.53	7.303	-0.13999	7.13182	2.0
34.4742	66.6594	-0.92	-0.92	0.00	17.53	7.303	-0.14248	7.13177	0.0
34.4942	66.6594	-0.92	-0.92	0.00	17.53	7.303	-0.14497	7.13172	0.0
34.5142	66.6594	-0.92	-0.92	0.00	17.53	7.303	-0.14746	7.13166	0.0

32.5242	66.6794	-0.92	-0.92	0.00	17.53	7.303	0.10155	7.13436	0.0
32.5442	66.6794	-0.92	-0.92	0.00	17.53	7.303	0.09906	7.13439	0.0
32.5642	66.6794	-0.92	-0.92	0.00	17.53	7.303	0.09657	7.13443	0.0
32.5842	66.6794	-0.92	-0.92	0.00	17.53	7.303	0.09408	7.13446	4.0
32.6042	66.6794	-0.92	-0.92	0.00	17.53	7.303	0.09159	7.13449	2.0
32.6242	66.6794	-0.92	-0.92	0.00	17.53	7.303	0.08910	7.13453	2.0
[...]
34.9142	69.6194	-0.92	-0.92	0.00	17.53	7.303	-0.01352	7.41095	2.0
34.9342	69.6194	-0.92	-0.92	0.00	17.53	7.303	-0.01610	7.41095	0.0
34.9542	69.6194	-0.92	-0.92	0.00	17.53	7.303	-0.01869	7.41094	4.0
34.9742	69.6194	-0.92	-0.92	0.00	17.53	7.303	-0.02128	7.41093	0.0
34.9942	69.6194	-0.92	-0.92	0.00	17.53	7.303	-0.02386	7.41093	2.0
35.0142	69.6194	-0.92	-0.92	0.00	17.53	7.303	-0.02645	7.41092	2.0
35.0342	69.6194	-0.92	-0.92	0.00	17.53	7.303	-0.02904	7.41091	0.0
35.0542	69.6194	-0.92	-0.92	0.00	17.53	7.303	-0.03162	7.41090	0.0
35.0742	69.6194	-0.92	-0.92	0.00	17.53	7.303	-0.03421	7.41089	2.0
35.0942	69.6194	-0.92	-0.92	0.00	17.53	7.303	-0.03680	7.41087	6.0
35.1142	69.6194	-0.92	-0.92	0.00	17.53	7.303	-0.03939	7.41086	2.0
35.1342	69.6194	-0.92	-0.92	0.00	17.53	7.303	-0.04197	7.41085	4.0
35.1542	69.6194	-0.92	-0.92	0.00	17.53	7.303	-0.04456	7.41083	0.0
35.1742	69.6194	-0.92	-0.92	0.00	17.53	7.303	-0.04715	7.41082	6.0
35.1942	69.6194	-0.92	-0.92	0.00	17.53	7.303	-0.04973	7.41080	0.0
35.2142	69.6194	-0.92	-0.92	0.00	17.53	7.303	-0.05232	7.41078	0.0
35.2342	69.6194	-0.92	-0.92	0.00	17.53	7.303	-0.05491	7.41076	0.0
35.2542	69.6194	-0.92	-0.92	0.00	17.53	7.303	-0.05749	7.41074	4.0
35.2742	69.6194	-0.92	-0.92	0.00	17.53	7.303	-0.06008	7.41072	0.0
35.2942	69.6194	-0.92	-0.92	0.00	17.53	7.303	-0.06267	7.41070	6.0
35.3142	69.6194	-0.92	-0.92	0.00	17.53	7.303	-0.06525	7.41068	4.0
35.3342	69.6194	-0.92	-0.92	0.00	17.53	7.303	-0.06784	7.41065	2.0
35.3542	69.6194	-0.92	-0.92	0.00	17.53	7.303	-0.07043	7.41063	2.0
35.3742	69.6194	-0.92	-0.92	0.00	17.53	7.303	-0.07301	7.41061	0.0
35.3942	69.6194	-0.92	-0.92	0.00	17.53	7.303	-0.07560	7.41058	2.0
35.4142	69.6194	-0.92	-0.92	0.00	17.53	7.303	-0.07819	7.41055	2.0
35.4342	69.6194	-0.92	-0.92	0.00	17.53	7.303	-0.08077	7.41053	0.0
35.4542	69.6194	-0.92	-0.92	0.00	17.53	7.303	-0.08336	7.41050	0.0
35.4742	69.6194	-0.92	-0.92	0.00	17.53	7.303	-0.08595	7.41047	0.0
35.4942	69.6194	-0.92	-0.92	0.00	17.53	7.303	-0.08854	7.41044	0.0
35.5142	69.6194	-0.92	-0.92	0.00	17.53	7.303	-0.09112	7.41041	2.0
35.5342	69.6194	-0.92	-0.92	0.00	17.53	7.303	-0.09371	7.41037	2.0
35.5542	69.6194	-0.92	-0.92	0.00	17.53	7.303	-0.09630	7.41034	4.0
35.5742	69.6194	-0.92	-0.92	0.00	17.53	7.303	-0.09888	7.41031	0.0
35.5942	69.6194	-0.92	-0.92	0.00	17.53	7.303	-0.10147	7.41027	2.0
35.6142	69.6194	-0.92	-0.92	0.00	17.53	7.303	-0.10406	7.41023	0.0
35.6342	69.6194	-0.92	-0.92	0.00	17.53	7.303	-0.10664	7.41020	2.0
35.6542	69.6194	-0.92	-0.92	0.00	17.53	7.303	-0.10923	7.41016	4.0
35.6742	69.6194	-0.92	-0.92	0.00	17.53	7.303	-0.11182	7.41012	2.0
35.6942	69.6194	-0.92	-0.92	0.00	17.53	7.303	-0.11440	7.41008	0.0
35.7142	69.6194	-0.92	-0.92	0.00	17.53	7.303	-0.11699	7.41004	0.0
35.7342	69.6194	-0.92	-0.92	0.00	17.53	7.303	-0.11957	7.41000	2.0
35.7542	69.6194	-0.92	-0.92	0.00	17.53	7.303	-0.12216	7.40996	2.0
35.7742	69.6194	-0.92	-0.92	0.00	17.53	7.303	-0.12475	7.40992	2.0
35.7942	69.6194	-0.92	-0.92	0.00	17.53	7.303	-0.12733	7.40987	0.0
35.8142	69.6194	-0.92	-0.92	0.00	17.53	7.303	-0.12992	7.40983	2.0
35.8342	69.6194	-0.92	-0.92	0.00	17.53	7.303	-0.13251	7.40978	2.0
35.8542	69.6194	-0.92	-0.92	0.00	17.53	7.303	-0.13509	7.40973	2.0
35.8742	69.6194	-0.92	-0.92	0.00	17.53	7.303	-0.13768	7.40969	0.0
35.8942	69.6194	-0.92	-0.92	0.00	17.53	7.303	-0.14027	7.40964	4.0
35.9142	69.6194	-0.92	-0.92	0.00	17.53	7.303	-0.14285	7.40959	0.0
35.9342	69.6194	-0.92	-0.92	0.00	17.53	7.303	-0.14544	7.40954	0.0
35.9542	69.6194	-0.92	-0.92	0.00	17.53	7.303	-0.14803	7.40949	0.0
35.9742	69.6194	-0.92	-0.92	0.00	17.53	7.303	-0.15061	7.40943	4.0
35.9942	69.6194	-0.92	-0.92	0.00	17.53	7.303	-0.15320	7.40938	2.0