Folder: Thesis_XRD/Data/Omega2Theta (part 2)

File: 1.5deg-2.0deg-rsm-2h30mins_11354-annealed_004_w_000-100.dat
# filename: 1.5deg-2.0deg-rsm-2h30mins_11354-annealed_004.dat
# reflection: (004)
# type: Projection of 100 omega2theta scans
# x-axis: omega2theta
#
# Omega	2Theta	Phi  	Chi   	X    	Y    	Z    	q_para	q_perp	Intensity
# [deg]	[deg] 	[deg]	[deg] 	[mm] 	[mm] 	[mm] 	[nm-1]	[nm-1]	[counts/s]
33.8539	66.6702	-0.10	0.00	0.00	-22.75	7.333	-0.06459	7.13355	1.0
33.8639	66.6902	-0.10	0.00	0.00	-22.75	7.333	-0.06461	7.13544	1.2
33.8739	66.7102	-0.10	0.00	0.00	-22.75	7.333	-0.06463	7.13734	1.0
33.8839	66.7302	-0.10	0.00	0.00	-22.75	7.333	-0.06465	7.13923	0.8
33.8939	66.7502	-0.10	0.00	0.00	-22.75	7.333	-0.06466	7.14112	1.0
33.9039	66.7702	-0.10	0.00	0.00	-22.75	7.333	-0.06468	7.14301	1.0
33.9139	66.7902	-0.10	0.00	0.00	-22.75	7.333	-0.06470	7.14490	1.0
33.9239	66.8102	-0.10	0.00	0.00	-22.75	7.333	-0.06471	7.14679	1.1
33.9339	66.8302	-0.10	0.00	0.00	-22.75	7.333	-0.06473	7.14869	1.1
33.9439	66.8502	-0.10	0.00	0.00	-22.75	7.333	-0.06475	7.15058	1.0
33.9539	66.8702	-0.10	0.00	0.00	-22.75	7.333	-0.06477	7.15247	1.0
33.9639	66.8902	-0.10	0.00	0.00	-22.75	7.333	-0.06478	7.15436	1.1
33.9739	66.9102	-0.10	0.00	0.00	-22.75	7.333	-0.06480	7.15625	1.2
33.9839	66.9302	-0.10	0.00	0.00	-22.75	7.333	-0.06482	7.15814	1.3
33.9939	66.9502	-0.10	0.00	0.00	-22.75	7.333	-0.06483	7.16003	1.2
34.0039	66.9702	-0.10	0.00	0.00	-22.75	7.333	-0.06485	7.16192	1.4
34.0139	66.9902	-0.10	0.00	0.00	-22.75	7.333	-0.06487	7.16381	1.3
34.0239	67.0102	-0.10	0.00	0.00	-22.75	7.333	-0.06489	7.16570	1.2
34.0339	67.0302	-0.10	0.00	0.00	-22.75	7.333	-0.06490	7.16759	1.2
34.0439	67.0502	-0.10	0.00	0.00	-22.75	7.333	-0.06492	7.16947	0.9
34.0539	67.0702	-0.10	0.00	0.00	-22.75	7.333	-0.06494	7.17136	1.2
34.0639	67.0902	-0.10	0.00	0.00	-22.75	7.333	-0.06495	7.17325	1.1
34.0739	67.1102	-0.10	0.00	0.00	-22.75	7.333	-0.06497	7.17514	1.0
34.0839	67.1302	-0.10	0.00	0.00	-22.75	7.333	-0.06499	7.17703	1.3
34.0939	67.1502	-0.10	0.00	0.00	-22.75	7.333	-0.06500	7.17892	1.0
34.1039	67.1702	-0.10	0.00	0.00	-22.75	7.333	-0.06502	7.18080	1.1
34.1139	67.1902	-0.10	0.00	0.00	-22.75	7.333	-0.06504	7.18269	1.3
34.1239	67.2102	-0.10	0.00	0.00	-22.75	7.333	-0.06506	7.18458	1.3
34.1339	67.2302	-0.10	0.00	0.00	-22.75	7.333	-0.06507	7.18646	1.1
34.1439	67.2502	-0.10	0.00	0.00	-22.75	7.333	-0.06509	7.18835	1.4
34.1539	67.2702	-0.10	0.00	0.00	-22.75	7.333	-0.06511	7.19024	1.6
34.1639	67.2902	-0.10	0.00	0.00	-22.75	7.333	-0.06512	7.19212	1.5
34.1739	67.3102	-0.10	0.00	0.00	-22.75	7.333	-0.06514	7.19401	1.3
34.1839	67.3302	-0.10	0.00	0.00	-22.75	7.333	-0.06516	7.19590	1.2
34.1939	67.3502	-0.10	0.00	0.00	-22.75	7.333	-0.06518	7.19778	1.2
34.2039	67.3702	-0.10	0.00	0.00	-22.75	7.333	-0.06519	7.19967	1.4
34.2139	67.3902	-0.10	0.00	0.00	-22.75	7.333	-0.06521	7.20155	2.0
34.2239	67.4102	-0.10	0.00	0.00	-22.75	7.333	-0.06523	7.20344	1.7
34.2339	67.4302	-0.10	0.00	0.00	-22.75	7.333	-0.06524	7.20532	1.8
34.2439	67.4502	-0.10	0.00	0.00	-22.75	7.333	-0.06526	7.20721	1.7
34.2539	67.4702	-0.10	0.00	0.00	-22.75	7.333	-0.06528	7.20909	1.7
34.2639	67.4902	-0.10	0.00	0.00	-22.75	7.333	-0.06530	7.21097	1.6
34.2739	67.5102	-0.10	0.00	0.00	-22.75	7.333	-0.06531	7.21286	1.5
34.2839	67.5302	-0.10	0.00	0.00	-22.75	7.333	-0.06533	7.21474	1.7
34.2939	67.5502	-0.10	0.00	0.00	-22.75	7.333	-0.06535	7.21662	1.5
34.3039	67.5702	-0.10	0.00	0.00	-22.75	7.333	-0.06536	7.21851	2.0
34.3139	67.5902	-0.10	0.00	0.00	-22.75	7.333	-0.06538	7.22039	1.7
34.3239	67.6102	-0.10	0.00	0.00	-22.75	7.333	-0.06540	7.22227	2.1
34.3339	67.6302	-0.10	0.00	0.00	-22.75	7.333	-0.06541	7.22416	2.1
34.3439	67.6502	-0.10	0.00	0.00	-22.75	7.333	-0.06543	7.22604	2.4
34.3539	67.6702	-0.10	0.00	0.00	-22.75	7.333	-0.06545	7.22792	2.4
34.3639	67.6902	-0.10	0.00	0.00	-22.75	7.333	-0.06547	7.22980	2.5
34.3739	67.7102	-0.10	0.00	0.00	-22.75	7.333	-0.06548	7.23168	2.7
34.3839	67.7302	-0.10	0.00	0.00	-22.75	7.333	-0.06550	7.23356	2.8
34.3939	67.7502	-0.10	0.00	0.00	-22.75	7.333	-0.06552	7.23545	3.3
34.4039	67.7702	-0.10	0.00	0.00	-22.75	7.333	-0.06553	7.23733	3.3
34.4139	67.7902	-0.10	0.00	0.00	-22.75	7.333	-0.06555	7.23921	4.6
34.4239	67.8102	-0.10	0.00	0.00	-22.75	7.333	-0.06557	7.24109	5.8
34.4339	67.8302	-0.10	0.00	0.00	-22.75	7.333	-0.06559	7.24297	9.3
34.4439	67.8502	-0.10	0.00	0.00	-22.75	7.333	-0.06560	7.24485	17.5
34.4539	67.8702	-0.10	0.00	0.00	-22.75	7.333	-0.06562	7.24673	62.9
34.4639	67.8902	-0.10	0.00	0.00	-22.75	7.333	-0.06564	7.24861	234.8
34.4739	67.9102	-0.10	0.00	0.00	-22.75	7.333	-0.06565	7.25049	898.3
34.4839	67.9302	-0.10	0.00	0.00	-22.75	7.333	-0.06567	7.25237	2662.0
34.4939	67.9502	-0.10	0.00	0.00	-22.75	7.333	-0.06569	7.25425	1757.0
34.5039	67.9702	-0.10	0.00	0.00	-22.75	7.333	-0.06570	7.25612	506.7
34.5139	67.9902	-0.10	0.00	0.00	-22.75	7.333	-0.06572	7.25800	237.7
34.5239	68.0102	-0.10	0.00	0.00	-22.75	7.333	-0.06574	7.25988	199.2
34.5339	68.0302	-0.10	0.00	0.00	-22.75	7.333	-0.06576	7.26176	192.2
34.5439	68.0502	-0.10	0.00	0.00	-22.75	7.333	-0.06577	7.26364	191.6
34.5539	68.0702	-0.10	0.00	0.00	-22.75	7.333	-0.06579	7.26551	195.1
34.5639	68.0902	-0.10	0.00	0.00	-22.75	7.333	-0.06581	7.26739	198.9
34.5739	68.1102	-0.10	0.00	0.00	-22.75	7.333	-0.06582	7.26927	201.9
34.5839	68.1302	-0.10	0.00	0.00	-22.75	7.333	-0.06584	7.27115	208.9
34.5939	68.1502	-0.10	0.00	0.00	-22.75	7.333	-0.06586	7.27302	217.1
34.6039	68.1702	-0.10	0.00	0.00	-22.75	7.333	-0.06587	7.27490	215.8
34.6139	68.1902	-0.10	0.00	0.00	-22.75	7.333	-0.06589	7.27677	216.1
34.6239	68.2102	-0.10	0.00	0.00	-22.75	7.333	-0.06591	7.27865	213.8
34.6339	68.2302	-0.10	0.00	0.00	-22.75	7.333	-0.06593	7.28053	209.1
34.6439	68.2502	-0.10	0.00	0.00	-22.75	7.333	-0.06594	7.28240	208.4
34.6539	68.2702	-0.10	0.00	0.00	-22.75	7.333	-0.06596	7.28428	203.5
34.6639	68.2902	-0.10	0.00	0.00	-22.75	7.333	-0.06598	7.28615	194.2
34.6739	68.3102	-0.10	0.00	0.00	-22.75	7.333	-0.06599	7.28803	194.4
34.6839	68.3302	-0.10	0.00	0.00	-22.75	7.333	-0.06601	7.28990	188.9
34.6939	68.3502	-0.10	0.00	0.00	-22.75	7.333	-0.06603	7.29178	184.8
34.7039	68.3702	-0.10	0.00	0.00	-22.75	7.333	-0.06604	7.29365	181.8
34.7139	68.3902	-0.10	0.00	0.00	-22.75	7.333	-0.06606	7.29553	180.0
34.7239	68.4102	-0.10	0.00	0.00	-22.75	7.333	-0.06608	7.29740	176.5
34.7339	68.4302	-0.10	0.00	0.00	-22.75	7.333	-0.06609	7.29927	177.4
34.7439	68.4502	-0.10	0.00	0.00	-22.75	7.333	-0.06611	7.30115	180.6
34.7539	68.4702	-0.10	0.00	0.00	-22.75	7.333	-0.06613	7.30302	178.6
34.7639	68.4902	-0.10	0.00	0.00	-22.75	7.333	-0.06615	7.30489	174.5
34.7739	68.5102	-0.10	0.00	0.00	-22.75	7.333	-0.06616	7.30677	175.1
34.7839	68.5302	-0.10	0.00	0.00	-22.75	7.333	-0.06618	7.30864	172.0
34.7939	68.5502	-0.10	0.00	0.00	-22.75	7.333	-0.06620	7.31051	170.2
34.8039	68.5702	-0.10	0.00	0.00	-22.75	7.333	-0.06621	7.31238	162.9
34.8139	68.5902	-0.10	0.00	0.00	-22.75	7.333	-0.06623	7.31425	160.2
34.8239	68.6102	-0.10	0.00	0.00	-22.75	7.333	-0.06625	7.31613	159.7
34.8339	68.6302	-0.10	0.00	0.00	-22.75	7.333	-0.06626	7.31800	160.0
34.8439	68.6502	-0.10	0.00	0.00	-22.75	7.333	-0.06628	7.31987	157.0
34.8539	68.6702	-0.10	0.00	0.00	-22.75	7.333	-0.06630	7.32174	155.4
34.8639	68.6902	-0.10	0.00	0.00	-22.75	7.333	-0.06632	7.32361	157.7
34.8739	68.7102	-0.10	0.00	0.00	-22.75	7.333	-0.06633	7.32548	153.6
34.8839	68.7302	-0.10	0.00	0.00	-22.75	7.333	-0.06635	7.32735	152.2
34.8939	68.7502	-0.10	0.00	0.00	-22.75	7.333	-0.06637	7.32922	147.3
34.9039	68.7702	-0.10	0.00	0.00	-22.75	7.333	-0.06638	7.33109	142.6
34.9139	68.7902	-0.10	0.00	0.00	-22.75	7.333	-0.06640	7.33296	142.7
34.9239	68.8102	-0.10	0.00	0.00	-22.75	7.333	-0.06642	7.33483	139.5
34.9339	68.8302	-0.10	0.00	0.00	-22.75	7.333	-0.06643	7.33670	143.2
34.9439	68.8502	-0.10	0.00	0.00	-22.75	7.333	-0.06645	7.33857	138.8
34.9539	68.8702	-0.10	0.00	0.00	-22.75	7.333	-0.06647	7.34044	139.1
34.9639	68.8902	-0.10	0.00	0.00	-22.75	7.333	-0.06648	7.34231	137.3
34.9739	68.9102	-0.10	0.00	0.00	-22.75	7.333	-0.06650	7.34417	135.2
34.9839	68.9302	-0.10	0.00	0.00	-22.75	7.333	-0.06652	7.34604	132.4
34.9939	68.9502	-0.10	0.00	0.00	-22.75	7.333	-0.06653	7.34791	132.2
35.0039	68.9702	-0.10	0.00	0.00	-22.75	7.333	-0.06655	7.34978	129.4
35.0139	68.9902	-0.10	0.00	0.00	-22.75	7.333	-0.06657	7.35164	130.4
35.0239	69.0102	-0.10	0.00	0.00	-22.75	7.333	-0.06659	7.35351	129.1
35.0339	69.0302	-0.10	0.00	0.00	-22.75	7.333	-0.06660	7.35538	121.5
35.0439	69.0502	-0.10	0.00	0.00	-22.75	7.333	-0.06662	7.35725	112.7
35.0539	69.0702	-0.10	0.00	0.00	-22.75	7.333	-0.06664	7.35911	107.2
35.0639	69.0902	-0.10	0.00	0.00	-22.75	7.333	-0.06665	7.36098	104.8
35.0739	69.1102	-0.10	0.00	0.00	-22.75	7.333	-0.06667	7.36284	138.5
35.0839	69.1302	-0.10	0.00	0.00	-22.75	7.333	-0.06669	7.36471	1256.3
35.0939	69.1502	-0.10	0.00	0.00	-22.75	7.333	-0.06670	7.36658	5101.0
35.1039	69.1702	-0.10	0.00	0.00	-22.75	7.333	-0.06672	7.36844	1801.9
35.1139	69.1902	-0.10	0.00	0.00	-22.75	7.333	-0.06674	7.37031	326.9
35.1239	69.2102	-0.10	0.00	0.00	-22.75	7.333	-0.06676	7.37217	68.3
35.1339	69.2302	-0.10	0.00	0.00	-22.75	7.333	-0.06677	7.37404	26.0
35.1439	69.2502	-0.10	0.00	0.00	-22.75	7.333	-0.06679	7.37590	7.5
35.1539	69.2702	-0.10	0.00	0.00	-22.75	7.333	-0.06681	7.37776	4.4
35.1639	69.2902	-0.10	0.00	0.00	-22.75	7.333	-0.06682	7.37963	3.4
35.1739	69.3102	-0.10	0.00	0.00	-22.75	7.333	-0.06684	7.38149	3.3
35.1839	69.3302	-0.10	0.00	0.00	-22.75	7.333	-0.06686	7.38336	3.1
35.1939	69.3502	-0.10	0.00	0.00	-22.75	7.333	-0.06687	7.38522	3.0
35.2039	69.3702	-0.10	0.00	0.00	-22.75	7.333	-0.06689	7.38708	2.8
35.2139	69.3902	-0.10	0.00	0.00	-22.75	7.333	-0.06691	7.38894	2.6
35.2239	69.4102	-0.10	0.00	0.00	-22.75	7.333	-0.06692	7.39081	2.8
35.2339	69.4302	-0.10	0.00	0.00	-22.75	7.333	-0.06694	7.39267	2.3
35.2439	69.4502	-0.10	0.00	0.00	-22.75	7.333	-0.06696	7.39453	2.3
35.2539	69.4702	-0.10	0.00	0.00	-22.75	7.333	-0.06697	7.39639	2.7
35.2639	69.4902	-0.10	0.00	0.00	-22.75	7.333	-0.06699	7.39826	2.2
35.2739	69.5102	-0.10	0.00	0.00	-22.75	7.333	-0.06701	7.40012	2.0
35.2839	69.5302	-0.10	0.00	0.00	-22.75	7.333	-0.06702	7.40198	2.1
35.2939	69.5502	-0.10	0.00	0.00	-22.75	7.333	-0.06704	7.40384	2.0
35.3039	69.5702	-0.10	0.00	0.00	-22.75	7.333	-0.06706	7.40570	1.8
35.3139	69.5902	-0.10	0.00	0.00	-22.75	7.333	-0.06708	7.40756	2.2
35.3239	69.6102	-0.10	0.00	0.00	-22.75	7.333	-0.06709	7.40942	2.1
35.3339	69.6302	-0.10	0.00	0.00	-22.75	7.333	-0.06711	7.41128	1.7

File: 1.5deg-2.0deg-rsm-2h30mins_11355-as-grown_004_w_000-100.dat
# filename: 1.5deg-2.0deg-rsm-2h30mins_11355-as-grown_004.dat
# reflection: (004)
# type: Projection of 100 omega2theta scans
# x-axis: omega2theta
#
# Omega	2Theta	Phi  	Chi   	X    	Y    	Z    	q_para	q_perp	Intensity
# [deg]	[deg] 	[deg]	[deg] 	[mm] 	[mm] 	[mm] 	[nm-1]	[nm-1]	[counts/s]
33.1686	66.6692	0.46	0.06	-30.00	-20.00	7.373	0.02067	7.13372	1.1
33.1786	66.6892	0.46	0.06	-30.00	-20.00	7.373	0.02067	7.13561	1.0
33.1886	66.7092	0.46	0.06	-30.00	-20.00	7.373	0.02068	7.13750	1.1
33.1986	66.7292	0.46	0.06	-30.00	-20.00	7.373	0.02068	7.13939	1.1
33.2086	66.7492	0.46	0.06	-30.00	-20.00	7.373	0.02069	7.14129	1.3
33.2186	66.7692	0.46	0.06	-30.00	-20.00	7.373	0.02070	7.14318	1.2
33.2286	66.7892	0.46	0.06	-30.00	-20.00	7.373	0.02070	7.14507	1.2
33.2386	66.8092	0.46	0.06	-30.00	-20.00	7.373	0.02071	7.14696	1.0
33.2486	66.8292	0.46	0.06	-30.00	-20.00	7.373	0.02071	7.14885	1.2
33.2586	66.8492	0.46	0.06	-30.00	-20.00	7.373	0.02072	7.15074	1.0
33.2686	66.8692	0.46	0.06	-30.00	-20.00	7.373	0.02072	7.15264	1.1
33.2786	66.8892	0.46	0.06	-30.00	-20.00	7.373	0.02073	7.15453	1.5
33.2886	66.9092	0.46	0.06	-30.00	-20.00	7.373	0.02073	7.15642	1.3
33.2986	66.9292	0.46	0.06	-30.00	-20.00	7.373	0.02074	7.15831	1.2
33.3086	66.9492	0.46	0.06	-30.00	-20.00	7.373	0.02074	7.16020	1.0
33.3186	66.9692	0.46	0.06	-30.00	-20.00	7.373	0.02075	7.16209	1.4
33.3286	66.9892	0.46	0.06	-30.00	-20.00	7.373	0.02076	7.16398	1.1
33.3386	67.0092	0.46	0.06	-30.00	-20.00	7.373	0.02076	7.16587	1.1
33.3486	67.0292	0.46	0.06	-30.00	-20.00	7.373	0.02077	7.16776	1.1
33.3586	67.0492	0.46	0.06	-30.00	-20.00	7.373	0.02077	7.16964	1.1
33.3686	67.0692	0.46	0.06	-30.00	-20.00	7.373	0.02078	7.17153	1.3
33.3786	67.0892	0.46	0.06	-30.00	-20.00	7.373	0.02078	7.17342	1.5
33.3886	67.1092	0.46	0.06	-30.00	-20.00	7.373	0.02079	7.17531	1.4
33.3986	67.1292	0.46	0.06	-30.00	-20.00	7.373	0.02079	7.17720	1.5
33.4086	67.1492	0.46	0.06	-30.00	-20.00	7.373	0.02080	7.17909	1.6
33.4186	67.1692	0.46	0.06	-30.00	-20.00	7.373	0.02080	7.18097	1.1
33.4286	67.1892	0.46	0.06	-30.00	-20.00	7.373	0.02081	7.18286	1.6
33.4386	67.2092	0.46	0.06	-30.00	-20.00	7.373	0.02082	7.18475	1.4
33.4486	67.2292	0.46	0.06	-30.00	-20.00	7.373	0.02082	7.18663	1.5
33.4586	67.2492	0.46	0.06	-30.00	-20.00	7.373	0.02083	7.18852	1.2
33.4686	67.2692	0.46	0.06	-30.00	-20.00	7.373	0.02083	7.19041	1.5
33.4786	67.2892	0.46	0.06	-30.00	-20.00	7.373	0.02084	7.19229	1.5
33.4886	67.3092	0.46	0.06	-30.00	-20.00	7.373	0.02084	7.19418	1.6
33.4986	67.3292	0.46	0.06	-30.00	-20.00	7.373	0.02085	7.19607	1.2
33.5086	67.3492	0.46	0.06	-30.00	-20.00	7.373	0.02085	7.19795	1.7
33.5186	67.3692	0.46	0.06	-30.00	-20.00	7.373	0.02086	7.19984	1.3
33.5286	67.3892	0.46	0.06	-30.00	-20.00	7.373	0.02087	7.20172	1.4
33.5386	67.4092	0.46	0.06	-30.00	-20.00	7.373	0.02087	7.20361	1.9
33.5486	67.4292	0.46	0.06	-30.00	-20.00	7.373	0.02088	7.20549	1.6
33.5586	67.4492	0.46	0.06	-30.00	-20.00	7.373	0.02088	7.20738	1.4
33.5686	67.4692	0.46	0.06	-30.00	-20.00	7.373	0.02089	7.20926	1.4
33.5786	67.4892	0.46	0.06	-30.00	-20.00	7.373	0.02089	7.21114	1.6
33.5886	67.5092	0.46	0.06	-30.00	-20.00	7.373	0.02090	7.21303	1.7
33.5986	67.5292	0.46	0.06	-30.00	-20.00	7.373	0.02090	7.21491	1.9
33.6086	67.5492	0.46	0.06	-30.00	-20.00	7.373	0.02091	7.21680	2.0
33.6186	67.5692	0.46	0.06	-30.00	-20.00	7.373	0.02091	7.21868	1.5
33.6286	67.5892	0.46	0.06	-30.00	-20.00	7.373	0.02092	7.22056	1.8
33.6386	67.6092	0.46	0.06	-30.00	-20.00	7.373	0.02093	7.22244	2.0
33.6486	67.6292	0.46	0.06	-30.00	-20.00	7.373	0.02093	7.22433	1.6
33.6586	67.6492	0.46	0.06	-30.00	-20.00	7.373	0.02094	7.22621	1.8
33.6686	67.6692	0.46	0.06	-30.00	-20.00	7.373	0.02094	7.22809	2.5
33.6786	67.6892	0.46	0.06	-30.00	-20.00	7.373	0.02095	7.22997	2.2
33.6886	67.7092	0.46	0.06	-30.00	-20.00	7.373	0.02095	7.23186	2.9
33.6986	67.7292	0.46	0.06	-30.00	-20.00	7.373	0.02096	7.23374	3.0
33.7086	67.7492	0.46	0.06	-30.00	-20.00	7.373	0.02096	7.23562	3.2
33.7186	67.7692	0.46	0.06	-30.00	-20.00	7.373	0.02097	7.23750	3.3
33.7286	67.7892	0.46	0.06	-30.00	-20.00	7.373	0.02097	7.23938	3.9
33.7386	67.8092	0.46	0.06	-30.00	-20.00	7.373	0.02098	7.24126	4.7
33.7486	67.8292	0.46	0.06	-30.00	-20.00	7.373	0.02099	7.24314	6.0
33.7586	67.8492	0.46	0.06	-30.00	-20.00	7.373	0.02099	7.24502	8.4
33.7686	67.8692	0.46	0.06	-30.00	-20.00	7.373	0.02100	7.24690	17.4
33.7786	67.8892	0.46	0.06	-30.00	-20.00	7.373	0.02100	7.24878	56.6
33.7886	67.9092	0.46	0.06	-30.00	-20.00	7.373	0.02101	7.25066	282.4
33.7986	67.9292	0.46	0.06	-30.00	-20.00	7.373	0.02101	7.25254	1665.7
33.8086	67.9492	0.46	0.06	-30.00	-20.00	7.373	0.02102	7.25442	2907.6
33.8186	67.9692	0.46	0.06	-30.00	-20.00	7.373	0.02102	7.25630	1108.1
33.8286	67.9892	0.46	0.06	-30.00	-20.00	7.373	0.02103	7.25818	348.2
33.8386	68.0092	0.46	0.06	-30.00	-20.00	7.373	0.02103	7.26005	223.6
33.8486	68.0292	0.46	0.06	-30.00	-20.00	7.373	0.02104	7.26193	203.8
33.8586	68.0492	0.46	0.06	-30.00	-20.00	7.373	0.02105	7.26381	203.9
33.8686	68.0692	0.46	0.06	-30.00	-20.00	7.373	0.02105	7.26569	206.5
33.8786	68.0892	0.46	0.06	-30.00	-20.00	7.373	0.02106	7.26756	208.7
33.8886	68.1092	0.46	0.06	-30.00	-20.00	7.373	0.02106	7.26944	209.3
33.8986	68.1292	0.46	0.06	-30.00	-20.00	7.373	0.02107	7.27132	212.1
33.9086	68.1492	0.46	0.06	-30.00	-20.00	7.373	0.02107	7.27320	210.7
33.9186	68.1692	0.46	0.06	-30.00	-20.00	7.373	0.02108	7.27507	215.4
33.9286	68.1892	0.46	0.06	-30.00	-20.00	7.373	0.02108	7.27695	219.3
33.9386	68.2092	0.46	0.06	-30.00	-20.00	7.373	0.02109	7.27883	214.9
33.9486	68.2292	0.46	0.06	-30.00	-20.00	7.373	0.02109	7.28070	215.6
33.9586	68.2492	0.46	0.06	-30.00	-20.00	7.373	0.02110	7.28258	208.5
33.9686	68.2692	0.46	0.06	-30.00	-20.00	7.373	0.02110	7.28445	202.1
33.9786	68.2892	0.46	0.06	-30.00	-20.00	7.373	0.02111	7.28633	195.7
33.9886	68.3092	0.46	0.06	-30.00	-20.00	7.373	0.02112	7.28820	195.2
33.9986	68.3292	0.46	0.06	-30.00	-20.00	7.373	0.02112	7.29008	184.3
34.0086	68.3492	0.46	0.06	-30.00	-20.00	7.373	0.02113	7.29195	184.8
34.0186	68.3692	0.46	0.06	-30.00	-20.00	7.373	0.02113	7.29383	183.6
34.0286	68.3892	0.46	0.06	-30.00	-20.00	7.373	0.02114	7.29570	175.6
34.0386	68.4092	0.46	0.06	-30.00	-20.00	7.373	0.02114	7.29757	174.8
34.0486	68.4292	0.46	0.06	-30.00	-20.00	7.373	0.02115	7.29945	173.0
34.0586	68.4492	0.46	0.06	-30.00	-20.00	7.373	0.02115	7.30132	172.7
34.0686	68.4692	0.46	0.06	-30.00	-20.00	7.373	0.02116	7.30319	171.7
34.0786	68.4892	0.46	0.06	-30.00	-20.00	7.373	0.02116	7.30507	168.6
34.0886	68.5092	0.46	0.06	-30.00	-20.00	7.373	0.02117	7.30694	167.3
34.0986	68.5292	0.46	0.06	-30.00	-20.00	7.373	0.02118	7.30881	168.6
34.1086	68.5492	0.46	0.06	-30.00	-20.00	7.373	0.02118	7.31069	160.9
34.1186	68.5692	0.46	0.06	-30.00	-20.00	7.373	0.02119	7.31256	158.8
34.1286	68.5892	0.46	0.06	-30.00	-20.00	7.373	0.02119	7.31443	156.8
34.1386	68.6092	0.46	0.06	-30.00	-20.00	7.373	0.02120	7.31630	154.7
34.1486	68.6292	0.46	0.06	-30.00	-20.00	7.373	0.02120	7.31817	151.4
34.1586	68.6492	0.46	0.06	-30.00	-20.00	7.373	0.02121	7.32004	151.9
34.1686	68.6692	0.46	0.06	-30.00	-20.00	7.373	0.02121	7.32192	152.1
34.1786	68.6892	0.46	0.06	-30.00	-20.00	7.373	0.02122	7.32379	151.4
34.1886	68.7092	0.46	0.06	-30.00	-20.00	7.373	0.02122	7.32566	148.6
34.1986	68.7292	0.46	0.06	-30.00	-20.00	7.373	0.02123	7.32753	143.6
34.2086	68.7492	0.46	0.06	-30.00	-20.00	7.373	0.02124	7.32940	137.3
34.2186	68.7692	0.46	0.06	-30.00	-20.00	7.373	0.02124	7.33127	139.4
34.2286	68.7892	0.46	0.06	-30.00	-20.00	7.373	0.02125	7.33314	134.1
34.2386	68.8092	0.46	0.06	-30.00	-20.00	7.373	0.02125	7.33501	134.5
34.2486	68.8292	0.46	0.06	-30.00	-20.00	7.373	0.02126	7.33688	136.7
34.2586	68.8492	0.46	0.06	-30.00	-20.00	7.373	0.02126	7.33875	136.4
34.2686	68.8692	0.46	0.06	-30.00	-20.00	7.373	0.02127	7.34061	134.5
34.2786	68.8892	0.46	0.06	-30.00	-20.00	7.373	0.02127	7.34248	129.6
34.2886	68.9092	0.46	0.06	-30.00	-20.00	7.373	0.02128	7.34435	125.0
34.2986	68.9292	0.46	0.06	-30.00	-20.00	7.373	0.02128	7.34622	127.0
34.3086	68.9492	0.46	0.06	-30.00	-20.00	7.373	0.02129	7.34809	128.8
34.3186	68.9692	0.46	0.06	-30.00	-20.00	7.373	0.02129	7.34995	124.1
34.3286	68.9892	0.46	0.06	-30.00	-20.00	7.373	0.02130	7.35182	127.5
34.3386	69.0092	0.46	0.06	-30.00	-20.00	7.373	0.02131	7.35369	121.1
34.3486	69.0292	0.46	0.06	-30.00	-20.00	7.373	0.02131	7.35556	117.8
34.3586	69.0492	0.46	0.06	-30.00	-20.00	7.373	0.02132	7.35742	110.3
34.3686	69.0692	0.46	0.06	-30.00	-20.00	7.373	0.02132	7.35929	107.8
34.3786	69.0892	0.46	0.06	-30.00	-20.00	7.373	0.02133	7.36116	103.2
34.3886	69.1092	0.46	0.06	-30.00	-20.00	7.373	0.02133	7.36302	119.8
34.3986	69.1292	0.46	0.06	-30.00	-20.00	7.373	0.02134	7.36489	1021.7
34.4086	69.1492	0.46	0.06	-30.00	-20.00	7.373	0.02134	7.36675	5856.4
34.4186	69.1692	0.46	0.06	-30.00	-20.00	7.373	0.02135	7.36862	2806.6
34.4286	69.1892	0.46	0.06	-30.00	-20.00	7.373	0.02135	7.37048	404.4
34.4386	69.2092	0.46	0.06	-30.00	-20.00	7.373	0.02136	7.37235	64.8
34.4486	69.2292	0.46	0.06	-30.00	-20.00	7.373	0.02136	7.37421	25.3
34.4586	69.2492	0.46	0.06	-30.00	-20.00	7.373	0.02137	7.37608	8.0
34.4686	69.2692	0.46	0.06	-30.00	-20.00	7.373	0.02138	7.37794	4.1
34.4786	69.2892	0.46	0.06	-30.00	-20.00	7.373	0.02138	7.37981	3.1
34.4886	69.3092	0.46	0.06	-30.00	-20.00	7.373	0.02139	7.38167	2.8
34.4986	69.3292	0.46	0.06	-30.00	-20.00	7.373	0.02139	7.38353	3.1
34.5086	69.3492	0.46	0.06	-30.00	-20.00	7.373	0.02140	7.38540	2.8
34.5186	69.3692	0.46	0.06	-30.00	-20.00	7.373	0.02140	7.38726	2.6
34.5286	69.3892	0.46	0.06	-30.00	-20.00	7.373	0.02141	7.38912	2.6
34.5386	69.4092	0.46	0.06	-30.00	-20.00	7.373	0.02141	7.39099	2.7
34.5486	69.4292	0.46	0.06	-30.00	-20.00	7.373	0.02142	7.39285	2.1
34.5586	69.4492	0.46	0.06	-30.00	-20.00	7.373	0.02142	7.39471	2.3
34.5686	69.4692	0.46	0.06	-30.00	-20.00	7.373	0.02143	7.39657	2.0
34.5786	69.4892	0.46	0.06	-30.00	-20.00	7.373	0.02144	7.39844	2.5
34.5886	69.5092	0.46	0.06	-30.00	-20.00	7.373	0.02144	7.40030	2.2
34.5986	69.5292	0.46	0.06	-30.00	-20.00	7.373	0.02145	7.40216	1.9
34.6086	69.5492	0.46	0.06	-30.00	-20.00	7.373	0.02145	7.40402	2.0
34.6186	69.5692	0.46	0.06	-30.00	-20.00	7.373	0.02146	7.40588	1.7
34.6286	69.5892	0.46	0.06	-30.00	-20.00	7.373	0.02146	7.40774	1.8
34.6386	69.6092	0.46	0.06	-30.00	-20.00	7.373	0.02147	7.40960	1.6
34.6486	69.6292	0.46	0.06	-30.00	-20.00	7.373	0.02147	7.41146	1.8