Folder: Thesis_XRD/Data/Omega (part 4)

File: 2.0deg-2.0deg-rsm-3h10mins_11352-annealed_224_w-scans.dat
# filename: 2.0deg-2.0deg-rsm-3h10mins_11352-annealed_224.dat
# reflection: (004)
# type: rotated into a series of omega scans
# x-axis: Omega_2Theta
#
# Omega	2Theta	Phi  	Chi   	X    	Y    	Z    	q_para	q_perp	Intensity
# [deg]	[deg] 	[deg]	[deg] 	[mm] 	[mm] 	[mm] 	[nm-1]	[nm-1]	[counts/s]
6.5575	85.0512	-1.19	0.12	0.00	17.51	7.290	5.15385	7.10197	0.0
6.5775	85.0512	-1.19	0.12	0.00	17.51	7.290	5.15137	7.10377	0.0
6.5975	85.0512	-1.19	0.12	0.00	17.51	7.290	5.14889	7.10557	0.0
6.6175	85.0512	-1.19	0.12	0.00	17.51	7.290	5.14641	7.10737	2.0
6.6375	85.0512	-1.19	0.12	0.00	17.51	7.290	5.14393	7.10916	0.0
6.6575	85.0512	-1.19	0.12	0.00	17.51	7.290	5.14144	7.11096	4.0
6.6775	85.0512	-1.19	0.12	0.00	17.51	7.290	5.13896	7.11275	0.0
6.6975	85.0512	-1.19	0.12	0.00	17.51	7.290	5.13648	7.11455	0.0
6.7175	85.0512	-1.19	0.12	0.00	17.51	7.290	5.13399	7.11634	2.0
6.7375	85.0512	-1.19	0.12	0.00	17.51	7.290	5.13151	7.11813	0.0
6.7575	85.0512	-1.19	0.12	0.00	17.51	7.290	5.12902	7.11992	0.0
6.7775	85.0512	-1.19	0.12	0.00	17.51	7.290	5.12654	7.12171	0.0
6.7975	85.0512	-1.19	0.12	0.00	17.51	7.290	5.12405	7.12350	4.0
6.8175	85.0512	-1.19	0.12	0.00	17.51	7.290	5.12157	7.12529	0.0
6.8375	85.0512	-1.19	0.12	0.00	17.51	7.290	5.11908	7.12708	2.0
6.8575	85.0512	-1.19	0.12	0.00	17.51	7.290	5.11659	7.12886	2.0
6.8775	85.0512	-1.19	0.12	0.00	17.51	7.290	5.11410	7.13065	2.0
6.8975	85.0512	-1.19	0.12	0.00	17.51	7.290	5.11161	7.13243	4.0
6.9175	85.0512	-1.19	0.12	0.00	17.51	7.290	5.10912	7.13422	0.0
6.9375	85.0512	-1.19	0.12	0.00	17.51	7.290	5.10663	7.13600	2.0
6.9575	85.0512	-1.19	0.12	0.00	17.51	7.290	5.10414	7.13778	2.0
6.9775	85.0512	-1.19	0.12	0.00	17.51	7.290	5.10165	7.13956	0.0
6.9975	85.0512	-1.19	0.12	0.00	17.51	7.290	5.09916	7.14134	6.0
7.0175	85.0512	-1.19	0.12	0.00	17.51	7.290	5.09666	7.14312	2.0
7.0375	85.0512	-1.19	0.12	0.00	17.51	7.290	5.09417	7.14490	0.0
7.0575	85.0512	-1.19	0.12	0.00	17.51	7.290	5.09168	7.14668	0.0
7.0775	85.0512	-1.19	0.12	0.00	17.51	7.290	5.08918	7.14846	0.0
7.0975	85.0512	-1.19	0.12	0.00	17.51	7.290	5.08668	7.15023	0.0
7.1175	85.0512	-1.19	0.12	0.00	17.51	7.290	5.08419	7.15201	2.0
7.1375	85.0512	-1.19	0.12	0.00	17.51	7.290	5.08169	7.15378	0.0
7.1575	85.0512	-1.19	0.12	0.00	17.51	7.290	5.07919	7.15555	0.0
7.1775	85.0512	-1.19	0.12	0.00	17.51	7.290	5.07670	7.15733	2.0
7.1975	85.0512	-1.19	0.12	0.00	17.51	7.290	5.07420	7.15910	0.0
7.2175	85.0512	-1.19	0.12	0.00	17.51	7.290	5.07170	7.16087	0.0
7.2375	85.0512	-1.19	0.12	0.00	17.51	7.290	5.06920	7.16264	2.0
7.2575	85.0512	-1.19	0.12	0.00	17.51	7.290	5.06670	7.16441	0.0
7.2775	85.0512	-1.19	0.12	0.00	17.51	7.290	5.06420	7.16618	4.0
7.2975	85.0512	-1.19	0.12	0.00	17.51	7.290	5.06169	7.16794	4.0
7.3175	85.0512	-1.19	0.12	0.00	17.51	7.290	5.05919	7.16971	2.0
7.3375	85.0512	-1.19	0.12	0.00	17.51	7.290	5.05669	7.17148	0.0
7.3575	85.0512	-1.19	0.12	0.00	17.51	7.290	5.05419	7.17324	2.0
7.3775	85.0512	-1.19	0.12	0.00	17.51	7.290	5.05168	7.17500	0.0
7.3975	85.0512	-1.19	0.12	0.00	17.51	7.290	5.04918	7.17677	0.0
7.4175	85.0512	-1.19	0.12	0.00	17.51	7.290	5.04667	7.17853	8.0
7.4375	85.0512	-1.19	0.12	0.00	17.51	7.290	5.04416	7.18029	2.0
7.4575	85.0512	-1.19	0.12	0.00	17.51	7.290	5.04166	7.18205	0.0
7.4775	85.0512	-1.19	0.12	0.00	17.51	7.290	5.03915	7.18381	0.0
7.4975	85.0512	-1.19	0.12	0.00	17.51	7.290	5.03664	7.18557	0.0
7.5175	85.0512	-1.19	0.12	0.00	17.51	7.290	5.03413	7.18733	2.0
7.5375	85.0512	-1.19	0.12	0.00	17.51	7.290	5.03163	7.18908	4.0
7.5575	85.0512	-1.19	0.12	0.00	17.51	7.290	5.02912	7.19084	0.0
7.5775	85.0512	-1.19	0.12	0.00	17.51	7.290	5.02661	7.19259	2.0
7.5975	85.0512	-1.19	0.12	0.00	17.51	7.290	5.02409	7.19435	2.0
7.6175	85.0512	-1.19	0.12	0.00	17.51	7.290	5.02158	7.19610	0.0
7.6375	85.0512	-1.19	0.12	0.00	17.51	7.290	5.01907	7.19785	4.0
7.6575	85.0512	-1.19	0.12	0.00	17.51	7.290	5.01656	7.19961	0.0
7.6775	85.0512	-1.19	0.12	0.00	17.51	7.290	5.01404	7.20136	2.0
7.6975	85.0512	-1.19	0.12	0.00	17.51	7.290	5.01153	7.20311	0.0
7.7175	85.0512	-1.19	0.12	0.00	17.51	7.290	5.00902	7.20485	6.0
7.7375	85.0512	-1.19	0.12	0.00	17.51	7.290	5.00650	7.20660	2.0
7.7575	85.0512	-1.19	0.12	0.00	17.51	7.290	5.00398	7.20835	0.0
7.7775	85.0512	-1.19	0.12	0.00	17.51	7.290	5.00147	7.21010	0.0
7.7975	85.0512	-1.19	0.12	0.00	17.51	7.290	4.99895	7.21184	0.0
7.8175	85.0512	-1.19	0.12	0.00	17.51	7.290	4.99643	7.21359	0.0
7.8375	85.0512	-1.19	0.12	0.00	17.51	7.290	4.99391	7.21533	6.0
7.8575	85.0512	-1.19	0.12	0.00	17.51	7.290	4.99140	7.21707	6.0
7.8775	85.0512	-1.19	0.12	0.00	17.51	7.290	4.98888	7.21881	4.0
7.8975	85.0512	-1.19	0.12	0.00	17.51	7.290	4.98636	7.22056	0.0
7.9175	85.0512	-1.19	0.12	0.00	17.51	7.290	4.98384	7.22230	0.0
7.9375	85.0512	-1.19	0.12	0.00	17.51	7.290	4.98131	7.22403	0.0
7.9575	85.0512	-1.19	0.12	0.00	17.51	7.290	4.97879	7.22577	0.0
7.9775	85.0512	-1.19	0.12	0.00	17.51	7.290	4.97627	7.22751	0.0
7.9975	85.0512	-1.19	0.12	0.00	17.51	7.290	4.97375	7.22925	2.0
8.0175	85.0512	-1.19	0.12	0.00	17.51	7.290	4.97122	7.23098	2.0
8.0375	85.0512	-1.19	0.12	0.00	17.51	7.290	4.96870	7.23272	2.0
8.0575	85.0512	-1.19	0.12	0.00	17.51	7.290	4.96617	7.23445	0.0
8.0775	85.0512	-1.19	0.12	0.00	17.51	7.290	4.96365	7.23618	0.0
8.0975	85.0512	-1.19	0.12	0.00	17.51	7.290	4.96112	7.23792	2.0
8.1175	85.0512	-1.19	0.12	0.00	17.51	7.290	4.95859	7.23965	0.0
8.1375	85.0512	-1.19	0.12	0.00	17.51	7.290	4.95607	7.24138	2.0
8.1575	85.0512	-1.19	0.12	0.00	17.51	7.290	4.95354	7.24311	0.0
8.1775	85.0512	-1.19	0.12	0.00	17.51	7.290	4.95101	7.24484	0.0
8.1975	85.0512	-1.19	0.12	0.00	17.51	7.290	4.94848	7.24656	0.0
8.2175	85.0512	-1.19	0.12	0.00	17.51	7.290	4.94595	7.24829	0.0
8.2375	85.0512	-1.19	0.12	0.00	17.51	7.290	4.94342	7.25002	4.0
8.2575	85.0512	-1.19	0.12	0.00	17.51	7.290	4.94089	7.25174	0.0
8.2775	85.0512	-1.19	0.12	0.00	17.51	7.290	4.93836	7.25347	4.0
8.2975	85.0512	-1.19	0.12	0.00	17.51	7.290	4.93583	7.25519	0.0
8.3175	85.0512	-1.19	0.12	0.00	17.51	7.290	4.93329	7.25691	0.0
8.3375	85.0512	-1.19	0.12	0.00	17.51	7.290	4.93076	7.25863	0.0
8.3575	85.0512	-1.19	0.12	0.00	17.51	7.290	4.92823	7.26036	0.0
8.3775	85.0512	-1.19	0.12	0.00	17.51	7.290	4.92569	7.26208	2.0
8.3975	85.0512	-1.19	0.12	0.00	17.51	7.290	4.92316	7.26379	2.0
8.4175	85.0512	-1.19	0.12	0.00	17.51	7.290	4.92062	7.26551	2.0
8.4375	85.0512	-1.19	0.12	0.00	17.51	7.290	4.91808	7.26723	0.0
8.4575	85.0512	-1.19	0.12	0.00	17.51	7.290	4.91555	7.26895	0.0
8.4775	85.0512	-1.19	0.12	0.00	17.51	7.290	4.91301	7.27066	2.0
8.4975	85.0512	-1.19	0.12	0.00	17.51	7.290	4.91047	7.27238	4.0
8.5175	85.0512	-1.19	0.12	0.00	17.51	7.290	4.90793	7.27409	0.0
8.5375	85.0512	-1.19	0.12	0.00	17.51	7.290	4.90539	7.27580	0.0
8.5575	85.0512	-1.19	0.12	0.00	17.51	7.290	4.90285	7.27751	0.0

6.5675	85.0712	-1.19	0.12	0.00	17.51	7.290	5.15483	7.10332	0.0
6.5875	85.0712	-1.19	0.12	0.00	17.51	7.290	5.15235	7.10512	0.0
6.6075	85.0712	-1.19	0.12	0.00	17.51	7.290	5.14987	7.10692	0.0
6.6275	85.0712	-1.19	0.12	0.00	17.51	7.290	5.14739	7.10872	2.0
6.6475	85.0712	-1.19	0.12	0.00	17.51	7.290	5.14490	7.11052	0.0
6.6675	85.0712	-1.19	0.12	0.00	17.51	7.290	5.14242	7.11231	2.0
6.6875	85.0712	-1.19	0.12	0.00	17.51	7.290	5.13994	7.11411	0.0
6.7075	85.0712	-1.19	0.12	0.00	17.51	7.290	5.13746	7.11590	0.0
6.7275	85.0712	-1.19	0.12	0.00	17.51	7.290	5.13497	7.11769	0.0
6.7475	85.0712	-1.19	0.12	0.00	17.51	7.290	5.13249	7.11948	0.0
[...]
9.4175	89.0112	-1.19	0.12	0.00	17.51	7.290	5.23117	7.44650	0.0
9.4375	89.0112	-1.19	0.12	0.00	17.51	7.290	5.22858	7.44832	0.0
9.4575	89.0112	-1.19	0.12	0.00	17.51	7.290	5.22598	7.45015	2.0
9.4775	89.0112	-1.19	0.12	0.00	17.51	7.290	5.22337	7.45197	2.0
9.4975	89.0112	-1.19	0.12	0.00	17.51	7.290	5.22077	7.45379	2.0
9.5175	89.0112	-1.19	0.12	0.00	17.51	7.290	5.21817	7.45561	0.0
9.5375	89.0112	-1.19	0.12	0.00	17.51	7.290	5.21557	7.45744	2.0
9.5575	89.0112	-1.19	0.12	0.00	17.51	7.290	5.21296	7.45926	0.0
9.5775	89.0112	-1.19	0.12	0.00	17.51	7.290	5.21036	7.46108	2.0
9.5975	89.0112	-1.19	0.12	0.00	17.51	7.290	5.20776	7.46289	0.0
9.6175	89.0112	-1.19	0.12	0.00	17.51	7.290	5.20515	7.46471	0.0
9.6375	89.0112	-1.19	0.12	0.00	17.51	7.290	5.20254	7.46653	2.0
9.6575	89.0112	-1.19	0.12	0.00	17.51	7.290	5.19994	7.46834	2.0
9.6775	89.0112	-1.19	0.12	0.00	17.51	7.290	5.19733	7.47016	0.0
9.6975	89.0112	-1.19	0.12	0.00	17.51	7.290	5.19472	7.47197	2.0
9.7175	89.0112	-1.19	0.12	0.00	17.51	7.290	5.19211	7.47378	0.0
9.7375	89.0112	-1.19	0.12	0.00	17.51	7.290	5.18950	7.47560	2.0
9.7575	89.0112	-1.19	0.12	0.00	17.51	7.290	5.18689	7.47741	2.0
9.7775	89.0112	-1.19	0.12	0.00	17.51	7.290	5.18428	7.47922	2.0
9.7975	89.0112	-1.19	0.12	0.00	17.51	7.290	5.18167	7.48103	2.0
9.8175	89.0112	-1.19	0.12	0.00	17.51	7.290	5.17906	7.48283	2.0
9.8375	89.0112	-1.19	0.12	0.00	17.51	7.290	5.17645	7.48464	4.0
9.8575	89.0112	-1.19	0.12	0.00	17.51	7.290	5.17384	7.48645	0.0
9.8775	89.0112	-1.19	0.12	0.00	17.51	7.290	5.17122	7.48825	4.0
9.8975	89.0112	-1.19	0.12	0.00	17.51	7.290	5.16861	7.49006	2.0
9.9175	89.0112	-1.19	0.12	0.00	17.51	7.290	5.16599	7.49186	2.0
9.9375	89.0112	-1.19	0.12	0.00	17.51	7.290	5.16338	7.49367	0.0
9.9575	89.0112	-1.19	0.12	0.00	17.51	7.290	5.16076	7.49547	0.0
9.9775	89.0112	-1.19	0.12	0.00	17.51	7.290	5.15815	7.49727	2.0
9.9975	89.0112	-1.19	0.12	0.00	17.51	7.290	5.15553	7.49907	2.0
10.0175	89.0112	-1.19	0.12	0.00	17.51	7.290	5.15291	7.50087	0.0
10.0375	89.0112	-1.19	0.12	0.00	17.51	7.290	5.15029	7.50267	2.0
10.0575	89.0112	-1.19	0.12	0.00	17.51	7.290	5.14767	7.50446	2.0
10.0775	89.0112	-1.19	0.12	0.00	17.51	7.290	5.14505	7.50626	0.0
10.0975	89.0112	-1.19	0.12	0.00	17.51	7.290	5.14243	7.50806	2.0
10.1175	89.0112	-1.19	0.12	0.00	17.51	7.290	5.13981	7.50985	2.0
10.1375	89.0112	-1.19	0.12	0.00	17.51	7.290	5.13719	7.51164	0.0
10.1575	89.0112	-1.19	0.12	0.00	17.51	7.290	5.13457	7.51344	6.0
10.1775	89.0112	-1.19	0.12	0.00	17.51	7.290	5.13194	7.51523	2.0
10.1975	89.0112	-1.19	0.12	0.00	17.51	7.290	5.12932	7.51702	2.0
10.2175	89.0112	-1.19	0.12	0.00	17.51	7.290	5.12670	7.51881	2.0
10.2375	89.0112	-1.19	0.12	0.00	17.51	7.290	5.12407	7.52060	2.0
10.2575	89.0112	-1.19	0.12	0.00	17.51	7.290	5.12145	7.52239	0.0
10.2775	89.0112	-1.19	0.12	0.00	17.51	7.290	5.11882	7.52417	0.0
10.2975	89.0112	-1.19	0.12	0.00	17.51	7.290	5.11619	7.52596	0.0
10.3175	89.0112	-1.19	0.12	0.00	17.51	7.290	5.11357	7.52775	4.0
10.3375	89.0112	-1.19	0.12	0.00	17.51	7.290	5.11094	7.52953	2.0
10.3575	89.0112	-1.19	0.12	0.00	17.51	7.290	5.10831	7.53131	4.0
10.3775	89.0112	-1.19	0.12	0.00	17.51	7.290	5.10568	7.53310	0.0
10.3975	89.0112	-1.19	0.12	0.00	17.51	7.290	5.10305	7.53488	0.0
10.4175	89.0112	-1.19	0.12	0.00	17.51	7.290	5.10042	7.53666	2.0
10.4375	89.0112	-1.19	0.12	0.00	17.51	7.290	5.09779	7.53844	2.0
10.4575	89.0112	-1.19	0.12	0.00	17.51	7.290	5.09516	7.54022	0.0
10.4775	89.0112	-1.19	0.12	0.00	17.51	7.290	5.09252	7.54200	8.0
10.4975	89.0112	-1.19	0.12	0.00	17.51	7.290	5.08989	7.54377	2.0
10.5175	89.0112	-1.19	0.12	0.00	17.51	7.290	5.08726	7.54555	0.0
10.5375	89.0112	-1.19	0.12	0.00	17.51	7.290	5.08462	7.54732	2.0

File: 2.0deg-2.0deg-rsm-3h10mins_11352-as-grown_224_w-scans.dat
# filename: 2.0deg-2.0deg-rsm-3h10mins_11352-as-grown_224.dat
# reflection: (004)
# type: rotated into a series of omega scans
# x-axis: Omega_2Theta
#
# Omega	2Theta	Phi  	Chi   	X    	Y    	Z    	q_para	q_perp	Intensity
# [deg]	[deg] 	[deg]	[deg] 	[mm] 	[mm] 	[mm] 	[nm-1]	[nm-1]	[counts/s]
6.1511	85.0724	1.28	0.08	-30.00	20.00	7.317	5.20645	7.06570	0.0
6.1711	85.0724	1.28	0.08	-30.00	20.00	7.317	5.20398	7.06752	2.0
6.1911	85.0724	1.28	0.08	-30.00	20.00	7.317	5.20151	7.06933	4.0
6.2111	85.0724	1.28	0.08	-30.00	20.00	7.317	5.19905	7.07115	0.0
6.2311	85.0724	1.28	0.08	-30.00	20.00	7.317	5.19658	7.07296	4.0
6.2511	85.0724	1.28	0.08	-30.00	20.00	7.317	5.19411	7.07478	0.0
6.2711	85.0724	1.28	0.08	-30.00	20.00	7.317	5.19164	7.07659	2.0
6.2911	85.0724	1.28	0.08	-30.00	20.00	7.317	5.18917	7.07840	0.0
6.3111	85.0724	1.28	0.08	-30.00	20.00	7.317	5.18670	7.08021	0.0
6.3311	85.0724	1.28	0.08	-30.00	20.00	7.317	5.18422	7.08202	4.0
6.3511	85.0724	1.28	0.08	-30.00	20.00	7.317	5.18175	7.08383	2.0
6.3711	85.0724	1.28	0.08	-30.00	20.00	7.317	5.17928	7.08564	0.0
6.3911	85.0724	1.28	0.08	-30.00	20.00	7.317	5.17681	7.08745	0.0
6.4111	85.0724	1.28	0.08	-30.00	20.00	7.317	5.17433	7.08925	0.0
6.4311	85.0724	1.28	0.08	-30.00	20.00	7.317	5.17186	7.09106	4.0
6.4511	85.0724	1.28	0.08	-30.00	20.00	7.317	5.16938	7.09286	4.0
6.4711	85.0724	1.28	0.08	-30.00	20.00	7.317	5.16690	7.09467	0.0
6.4911	85.0724	1.28	0.08	-30.00	20.00	7.317	5.16443	7.09647	0.0
6.5111	85.0724	1.28	0.08	-30.00	20.00	7.317	5.16195	7.09827	0.0
6.5311	85.0724	1.28	0.08	-30.00	20.00	7.317	5.15947	7.10008	2.0
6.5511	85.0724	1.28	0.08	-30.00	20.00	7.317	5.15699	7.10188	0.0
6.5711	85.0724	1.28	0.08	-30.00	20.00	7.317	5.15451	7.10368	4.0
6.5911	85.0724	1.28	0.08	-30.00	20.00	7.317	5.15203	7.10547	2.0
6.6111	85.0724	1.28	0.08	-30.00	20.00	7.317	5.14955	7.10727	0.0
6.6311	85.0724	1.28	0.08	-30.00	20.00	7.317	5.14707	7.10907	4.0
6.6511	85.0724	1.28	0.08	-30.00	20.00	7.317	5.14459	7.11087	2.0
6.6711	85.0724	1.28	0.08	-30.00	20.00	7.317	5.14211	7.11266	0.0
6.6911	85.0724	1.28	0.08	-30.00	20.00	7.317	5.13963	7.11446	0.0
6.7111	85.0724	1.28	0.08	-30.00	20.00	7.317	5.13714	7.11625	2.0
6.7311	85.0724	1.28	0.08	-30.00	20.00	7.317	5.13466	7.11804	6.0
6.7511	85.0724	1.28	0.08	-30.00	20.00	7.317	5.13217	7.11983	2.0
6.7711	85.0724	1.28	0.08	-30.00	20.00	7.317	5.12969	7.12163	4.0
6.7911	85.0724	1.28	0.08	-30.00	20.00	7.317	5.12720	7.12342	0.0
6.8111	85.0724	1.28	0.08	-30.00	20.00	7.317	5.12471	7.12520	0.0
6.8311	85.0724	1.28	0.08	-30.00	20.00	7.317	5.12223	7.12699	2.0
6.8511	85.0724	1.28	0.08	-30.00	20.00	7.317	5.11974	7.12878	0.0
6.8711	85.0724	1.28	0.08	-30.00	20.00	7.317	5.11725	7.13057	0.0
6.8911	85.0724	1.28	0.08	-30.00	20.00	7.317	5.11476	7.13235	2.0
6.9111	85.0724	1.28	0.08	-30.00	20.00	7.317	5.11227	7.13414	0.0
6.9311	85.0724	1.28	0.08	-30.00	20.00	7.317	5.10978	7.13592	0.0
6.9511	85.0724	1.28	0.08	-30.00	20.00	7.317	5.10729	7.13771	6.0
6.9711	85.0724	1.28	0.08	-30.00	20.00	7.317	5.10480	7.13949	2.0
6.9911	85.0724	1.28	0.08	-30.00	20.00	7.317	5.10230	7.14127	0.0
7.0111	85.0724	1.28	0.08	-30.00	20.00	7.317	5.09981	7.14305	0.0
7.0311	85.0724	1.28	0.08	-30.00	20.00	7.317	5.09732	7.14483	0.0
7.0511	85.0724	1.28	0.08	-30.00	20.00	7.317	5.09482	7.14661	2.0
7.0711	85.0724	1.28	0.08	-30.00	20.00	7.317	5.09233	7.14839	0.0
7.0911	85.0724	1.28	0.08	-30.00	20.00	7.317	5.08983	7.15016	2.0
7.1111	85.0724	1.28	0.08	-30.00	20.00	7.317	5.08734	7.15194	2.0
7.1311	85.0724	1.28	0.08	-30.00	20.00	7.317	5.08484	7.15372	2.0
7.1511	85.0724	1.28	0.08	-30.00	20.00	7.317	5.08234	7.15549	0.0
7.1711	85.0724	1.28	0.08	-30.00	20.00	7.317	5.07984	7.15726	2.0
7.1911	85.0724	1.28	0.08	-30.00	20.00	7.317	5.07735	7.15904	2.0
7.2111	85.0724	1.28	0.08	-30.00	20.00	7.317	5.07485	7.16081	0.0
7.2311	85.0724	1.28	0.08	-30.00	20.00	7.317	5.07235	7.16258	0.0
7.2511	85.0724	1.28	0.08	-30.00	20.00	7.317	5.06985	7.16435	0.0
7.2711	85.0724	1.28	0.08	-30.00	20.00	7.317	5.06734	7.16612	0.0
7.2911	85.0724	1.28	0.08	-30.00	20.00	7.317	5.06484	7.16789	0.0
7.3111	85.0724	1.28	0.08	-30.00	20.00	7.317	5.06234	7.16965	0.0
7.3311	85.0724	1.28	0.08	-30.00	20.00	7.317	5.05984	7.17142	2.0
7.3511	85.0724	1.28	0.08	-30.00	20.00	7.317	5.05733	7.17319	2.0
7.3711	85.0724	1.28	0.08	-30.00	20.00	7.317	5.05483	7.17495	0.0
7.3911	85.0724	1.28	0.08	-30.00	20.00	7.317	5.05232	7.17672	2.0
7.4111	85.0724	1.28	0.08	-30.00	20.00	7.317	5.04982	7.17848	0.0
7.4311	85.0724	1.28	0.08	-30.00	20.00	7.317	5.04731	7.18024	6.0
7.4511	85.0724	1.28	0.08	-30.00	20.00	7.317	5.04481	7.18200	2.0
7.4711	85.0724	1.28	0.08	-30.00	20.00	7.317	5.04230	7.18376	0.0
7.4911	85.0724	1.28	0.08	-30.00	20.00	7.317	5.03979	7.18552	0.0
7.5111	85.0724	1.28	0.08	-30.00	20.00	7.317	5.03728	7.18728	2.0
7.5311	85.0724	1.28	0.08	-30.00	20.00	7.317	5.03477	7.18904	2.0
7.5511	85.0724	1.28	0.08	-30.00	20.00	7.317	5.03226	7.19080	6.0
7.5711	85.0724	1.28	0.08	-30.00	20.00	7.317	5.02975	7.19255	2.0
7.5911	85.0724	1.28	0.08	-30.00	20.00	7.317	5.02724	7.19431	4.0
7.6111	85.0724	1.28	0.08	-30.00	20.00	7.317	5.02473	7.19606	4.0
7.6311	85.0724	1.28	0.08	-30.00	20.00	7.317	5.02222	7.19782	4.0
7.6511	85.0724	1.28	0.08	-30.00	20.00	7.317	5.01971	7.19957	0.0
7.6711	85.0724	1.28	0.08	-30.00	20.00	7.317	5.01719	7.20132	6.0
7.6911	85.0724	1.28	0.08	-30.00	20.00	7.317	5.01468	7.20307	2.0
7.7111	85.0724	1.28	0.08	-30.00	20.00	7.317	5.01216	7.20482	0.0
7.7311	85.0724	1.28	0.08	-30.00	20.00	7.317	5.00965	7.20657	2.0
7.7511	85.0724	1.28	0.08	-30.00	20.00	7.317	5.00713	7.20832	0.0
7.7711	85.0724	1.28	0.08	-30.00	20.00	7.317	5.00462	7.21007	0.0
7.7911	85.0724	1.28	0.08	-30.00	20.00	7.317	5.00210	7.21181	0.0
7.8111	85.0724	1.28	0.08	-30.00	20.00	7.317	4.99958	7.21356	0.0
7.8311	85.0724	1.28	0.08	-30.00	20.00	7.317	4.99706	7.21530	0.0
7.8511	85.0724	1.28	0.08	-30.00	20.00	7.317	4.99454	7.21705	4.0
7.8711	85.0724	1.28	0.08	-30.00	20.00	7.317	4.99202	7.21879	2.0
7.8911	85.0724	1.28	0.08	-30.00	20.00	7.317	4.98950	7.22053	0.0
7.9111	85.0724	1.28	0.08	-30.00	20.00	7.317	4.98698	7.22227	0.0
7.9311	85.0724	1.28	0.08	-30.00	20.00	7.317	4.98446	7.22401	0.0
7.9511	85.0724	1.28	0.08	-30.00	20.00	7.317	4.98194	7.22575	2.0
7.9711	85.0724	1.28	0.08	-30.00	20.00	7.317	4.97942	7.22749	0.0
7.9911	85.0724	1.28	0.08	-30.00	20.00	7.317	4.97689	7.22923	0.0
8.0111	85.0724	1.28	0.08	-30.00	20.00	7.317	4.97437	7.23097	0.0
8.0311	85.0724	1.28	0.08	-30.00	20.00	7.317	4.97185	7.23270	0.0
8.0511	85.0724	1.28	0.08	-30.00	20.00	7.317	4.96932	7.23444	0.0
8.0711	85.0724	1.28	0.08	-30.00	20.00	7.317	4.96680	7.23617	0.0
8.0911	85.0724	1.28	0.08	-30.00	20.00	7.317	4.96427	7.23790	2.0
8.1111	85.0724	1.28	0.08	-30.00	20.00	7.317	4.96174	7.23964	0.0
8.1311	85.0724	1.28	0.08	-30.00	20.00	7.317	4.95922	7.24137	4.0
8.1511	85.0724	1.28	0.08	-30.00	20.00	7.317	4.95669	7.24310	0.0

6.1611	85.0924	1.28	0.08	-30.00	20.00	7.317	5.20744	7.06704	0.0
6.1811	85.0924	1.28	0.08	-30.00	20.00	7.317	5.20497	7.06886	4.0
6.2011	85.0924	1.28	0.08	-30.00	20.00	7.317	5.20250	7.07068	2.0
6.2211	85.0924	1.28	0.08	-30.00	20.00	7.317	5.20004	7.07249	2.0
6.2411	85.0924	1.28	0.08	-30.00	20.00	7.317	5.19757	7.07431	2.0
6.2611	85.0924	1.28	0.08	-30.00	20.00	7.317	5.19510	7.07612	0.0
6.2811	85.0924	1.28	0.08	-30.00	20.00	7.317	5.19263	7.07794	2.0
6.3011	85.0924	1.28	0.08	-30.00	20.00	7.317	5.19015	7.07975	0.0
[...]
9.0111	89.0324	1.28	0.08	-30.00	20.00	7.317	5.28623	7.40962	0.0
9.0311	89.0324	1.28	0.08	-30.00	20.00	7.317	5.28364	7.41147	2.0
9.0511	89.0324	1.28	0.08	-30.00	20.00	7.317	5.28105	7.41331	4.0
9.0711	89.0324	1.28	0.08	-30.00	20.00	7.317	5.27846	7.41515	4.0
9.0911	89.0324	1.28	0.08	-30.00	20.00	7.317	5.27588	7.41699	2.0
9.1111	89.0324	1.28	0.08	-30.00	20.00	7.317	5.27329	7.41884	0.0
9.1311	89.0324	1.28	0.08	-30.00	20.00	7.317	5.27070	7.42068	2.0
9.1511	89.0324	1.28	0.08	-30.00	20.00	7.317	5.26811	7.42252	2.0
9.1711	89.0324	1.28	0.08	-30.00	20.00	7.317	5.26551	7.42435	4.0
9.1911	89.0324	1.28	0.08	-30.00	20.00	7.317	5.26292	7.42619	0.0
9.2111	89.0324	1.28	0.08	-30.00	20.00	7.317	5.26033	7.42803	0.0
9.2311	89.0324	1.28	0.08	-30.00	20.00	7.317	5.25774	7.42986	2.0
9.2511	89.0324	1.28	0.08	-30.00	20.00	7.317	5.25514	7.43170	2.0
9.2711	89.0324	1.28	0.08	-30.00	20.00	7.317	5.25255	7.43353	0.0
9.2911	89.0324	1.28	0.08	-30.00	20.00	7.317	5.24995	7.43537	2.0
9.3111	89.0324	1.28	0.08	-30.00	20.00	7.317	5.24736	7.43720	2.0
9.3311	89.0324	1.28	0.08	-30.00	20.00	7.317	5.24476	7.43903	2.0
9.3511	89.0324	1.28	0.08	-30.00	20.00	7.317	5.24216	7.44086	0.0
9.3711	89.0324	1.28	0.08	-30.00	20.00	7.317	5.23957	7.44269	2.0
9.3911	89.0324	1.28	0.08	-30.00	20.00	7.317	5.23697	7.44452	0.0
9.4111	89.0324	1.28	0.08	-30.00	20.00	7.317	5.23437	7.44634	2.0
9.4311	89.0324	1.28	0.08	-30.00	20.00	7.317	5.23177	7.44817	2.0
9.4511	89.0324	1.28	0.08	-30.00	20.00	7.317	5.22917	7.45000	2.0
9.4711	89.0324	1.28	0.08	-30.00	20.00	7.317	5.22657	7.45182	0.0
9.4911	89.0324	1.28	0.08	-30.00	20.00	7.317	5.22397	7.45365	0.0
9.5111	89.0324	1.28	0.08	-30.00	20.00	7.317	5.22136	7.45547	2.0
9.5311	89.0324	1.28	0.08	-30.00	20.00	7.317	5.21876	7.45729	2.0
9.5511	89.0324	1.28	0.08	-30.00	20.00	7.317	5.21616	7.45911	0.0
9.5711	89.0324	1.28	0.08	-30.00	20.00	7.317	5.21355	7.46093	4.0
9.5911	89.0324	1.28	0.08	-30.00	20.00	7.317	5.21095	7.46275	0.0
9.6111	89.0324	1.28	0.08	-30.00	20.00	7.317	5.20834	7.46457	4.0
9.6311	89.0324	1.28	0.08	-30.00	20.00	7.317	5.20574	7.46639	4.0
9.6511	89.0324	1.28	0.08	-30.00	20.00	7.317	5.20313	7.46821	0.0
9.6711	89.0324	1.28	0.08	-30.00	20.00	7.317	5.20052	7.47002	0.0
9.6911	89.0324	1.28	0.08	-30.00	20.00	7.317	5.19792	7.47184	2.0
9.7111	89.0324	1.28	0.08	-30.00	20.00	7.317	5.19531	7.47365	0.0
9.7311	89.0324	1.28	0.08	-30.00	20.00	7.317	5.19270	7.47546	0.0
9.7511	89.0324	1.28	0.08	-30.00	20.00	7.317	5.19009	7.47727	0.0
9.7711	89.0324	1.28	0.08	-30.00	20.00	7.317	5.18748	7.47909	0.0
9.7911	89.0324	1.28	0.08	-30.00	20.00	7.317	5.18487	7.48090	0.0
9.8111	89.0324	1.28	0.08	-30.00	20.00	7.317	5.18226	7.48271	8.0
9.8311	89.0324	1.28	0.08	-30.00	20.00	7.317	5.17964	7.48451	0.0
9.8511	89.0324	1.28	0.08	-30.00	20.00	7.317	5.17703	7.48632	2.0
9.8711	89.0324	1.28	0.08	-30.00	20.00	7.317	5.17442	7.48813	2.0
9.8911	89.0324	1.28	0.08	-30.00	20.00	7.317	5.17180	7.48993	0.0
9.9111	89.0324	1.28	0.08	-30.00	20.00	7.317	5.16919	7.49174	2.0
9.9311	89.0324	1.28	0.08	-30.00	20.00	7.317	5.16657	7.49354	0.0
9.9511	89.0324	1.28	0.08	-30.00	20.00	7.317	5.16396	7.49535	4.0
9.9711	89.0324	1.28	0.08	-30.00	20.00	7.317	5.16134	7.49715	8.0
9.9911	89.0324	1.28	0.08	-30.00	20.00	7.317	5.15872	7.49895	0.0
10.0111	89.0324	1.28	0.08	-30.00	20.00	7.317	5.15611	7.50075	4.0
10.0311	89.0324	1.28	0.08	-30.00	20.00	7.317	5.15349	7.50255	8.0
10.0511	89.0324	1.28	0.08	-30.00	20.00	7.317	5.15087	7.50435	2.0
10.0711	89.0324	1.28	0.08	-30.00	20.00	7.317	5.14825	7.50615	4.0
10.0911	89.0324	1.28	0.08	-30.00	20.00	7.317	5.14563	7.50794	0.0
10.1111	89.0324	1.28	0.08	-30.00	20.00	7.317	5.14301	7.50974	6.0
10.1311	89.0324	1.28	0.08	-30.00	20.00	7.317	5.14038	7.51153	0.0