Folder: Thesis_XRD/Data/Omega

File: 1.5deg-2.0deg-rsm-2h30mins_11352-annealed_004_w-scans.dat
# filename: 1.5deg-2.0deg-rsm-2h30mins_11352-annealed_004.dat
# reflection: (004)
# type: rotated into a series of omega scans
# x-axis: Omega_2Theta
#
# Omega	2Theta	Phi  	Chi   	X    	Y    	Z    	q_para	q_perp	Intensity
# [deg]	[deg] 	[deg]	[deg] 	[mm] 	[mm] 	[mm] 	[nm-1]	[nm-1]	[counts/s]
32.6159	66.6676	-1.19	-0.10	0.00	17.51	7.290	0.08938	7.13341	0.0
32.6359	66.6676	-1.19	-0.10	0.00	17.51	7.290	0.08689	7.13344	0.0
32.6559	66.6676	-1.19	-0.10	0.00	17.51	7.290	0.08440	7.13347	2.0
32.6759	66.6676	-1.19	-0.10	0.00	17.51	7.290	0.08191	7.13349	2.0
32.6959	66.6676	-1.19	-0.10	0.00	17.51	7.290	0.07942	7.13352	0.0
32.7159	66.6676	-1.19	-0.10	0.00	17.51	7.290	0.07693	7.13355	0.0
32.7359	66.6676	-1.19	-0.10	0.00	17.51	7.290	0.07444	7.13358	0.0
32.7559	66.6676	-1.19	-0.10	0.00	17.51	7.290	0.07195	7.13360	2.0
32.7759	66.6676	-1.19	-0.10	0.00	17.51	7.290	0.06946	7.13363	0.0
32.7959	66.6676	-1.19	-0.10	0.00	17.51	7.290	0.06697	7.13365	0.0
32.8159	66.6676	-1.19	-0.10	0.00	17.51	7.290	0.06448	7.13367	0.0
32.8359	66.6676	-1.19	-0.10	0.00	17.51	7.290	0.06199	7.13370	0.0
32.8559	66.6676	-1.19	-0.10	0.00	17.51	7.290	0.05950	7.13372	0.0
32.8759	66.6676	-1.19	-0.10	0.00	17.51	7.290	0.05701	7.13374	0.0
32.8959	66.6676	-1.19	-0.10	0.00	17.51	7.290	0.05452	7.13376	0.0
32.9159	66.6676	-1.19	-0.10	0.00	17.51	7.290	0.05203	7.13378	0.0
32.9359	66.6676	-1.19	-0.10	0.00	17.51	7.290	0.04954	7.13379	2.0
32.9559	66.6676	-1.19	-0.10	0.00	17.51	7.290	0.04705	7.13381	0.0
32.9759	66.6676	-1.19	-0.10	0.00	17.51	7.290	0.04456	7.13383	0.0
32.9959	66.6676	-1.19	-0.10	0.00	17.51	7.290	0.04207	7.13384	0.0
33.0159	66.6676	-1.19	-0.10	0.00	17.51	7.290	0.03958	7.13386	0.0
33.0359	66.6676	-1.19	-0.10	0.00	17.51	7.290	0.03709	7.13387	0.0
33.0559	66.6676	-1.19	-0.10	0.00	17.51	7.290	0.03460	7.13388	0.0
33.0759	66.6676	-1.19	-0.10	0.00	17.51	7.290	0.03211	7.13389	0.0
33.0959	66.6676	-1.19	-0.10	0.00	17.51	7.290	0.02962	7.13390	0.0
33.1159	66.6676	-1.19	-0.10	0.00	17.51	7.290	0.02713	7.13391	0.0
33.1359	66.6676	-1.19	-0.10	0.00	17.51	7.290	0.02464	7.13392	0.0
33.1559	66.6676	-1.19	-0.10	0.00	17.51	7.290	0.02215	7.13393	0.0
33.1759	66.6676	-1.19	-0.10	0.00	17.51	7.290	0.01966	7.13394	4.0
33.1959	66.6676	-1.19	-0.10	0.00	17.51	7.290	0.01717	7.13394	0.0
33.2159	66.6676	-1.19	-0.10	0.00	17.51	7.290	0.01468	7.13395	2.0
33.2359	66.6676	-1.19	-0.10	0.00	17.51	7.290	0.01219	7.13395	2.0
33.2559	66.6676	-1.19	-0.10	0.00	17.51	7.290	0.00970	7.13396	8.0
33.2759	66.6676	-1.19	-0.10	0.00	17.51	7.290	0.00721	7.13396	0.0
33.2959	66.6676	-1.19	-0.10	0.00	17.51	7.290	0.00472	7.13396	0.0
33.3159	66.6676	-1.19	-0.10	0.00	17.51	7.290	0.00223	7.13396	0.0
33.3359	66.6676	-1.19	-0.10	0.00	17.51	7.290	-0.00026	7.13397	2.0
33.3559	66.6676	-1.19	-0.10	0.00	17.51	7.290	-0.00275	7.13396	0.0
33.3759	66.6676	-1.19	-0.10	0.00	17.51	7.290	-0.00524	7.13396	2.0
33.3959	66.6676	-1.19	-0.10	0.00	17.51	7.290	-0.00773	7.13396	2.0
33.4159	66.6676	-1.19	-0.10	0.00	17.51	7.290	-0.01022	7.13396	0.0
33.4359	66.6676	-1.19	-0.10	0.00	17.51	7.290	-0.01271	7.13395	0.0
33.4559	66.6676	-1.19	-0.10	0.00	17.51	7.290	-0.01520	7.13395	2.0
33.4759	66.6676	-1.19	-0.10	0.00	17.51	7.290	-0.01769	7.13394	4.0
33.4959	66.6676	-1.19	-0.10	0.00	17.51	7.290	-0.02018	7.13394	4.0
33.5159	66.6676	-1.19	-0.10	0.00	17.51	7.290	-0.02267	7.13393	0.0
33.5359	66.6676	-1.19	-0.10	0.00	17.51	7.290	-0.02516	7.13392	2.0
33.5559	66.6676	-1.19	-0.10	0.00	17.51	7.290	-0.02765	7.13391	0.0
33.5759	66.6676	-1.19	-0.10	0.00	17.51	7.290	-0.03014	7.13390	2.0
33.5959	66.6676	-1.19	-0.10	0.00	17.51	7.290	-0.03263	7.13389	0.0
33.6159	66.6676	-1.19	-0.10	0.00	17.51	7.290	-0.03512	7.13388	2.0
33.6359	66.6676	-1.19	-0.10	0.00	17.51	7.290	-0.03761	7.13387	0.0
33.6559	66.6676	-1.19	-0.10	0.00	17.51	7.290	-0.04010	7.13385	0.0
33.6759	66.6676	-1.19	-0.10	0.00	17.51	7.290	-0.04260	7.13384	2.0
33.6959	66.6676	-1.19	-0.10	0.00	17.51	7.290	-0.04509	7.13382	0.0
33.7159	66.6676	-1.19	-0.10	0.00	17.51	7.290	-0.04758	7.13381	2.0
33.7359	66.6676	-1.19	-0.10	0.00	17.51	7.290	-0.05007	7.13379	0.0
33.7559	66.6676	-1.19	-0.10	0.00	17.51	7.290	-0.05256	7.13377	0.0
33.7759	66.6676	-1.19	-0.10	0.00	17.51	7.290	-0.05505	7.13375	0.0
33.7959	66.6676	-1.19	-0.10	0.00	17.51	7.290	-0.05754	7.13373	2.0
33.8159	66.6676	-1.19	-0.10	0.00	17.51	7.290	-0.06003	7.13371	4.0
33.8359	66.6676	-1.19	-0.10	0.00	17.51	7.290	-0.06252	7.13369	2.0
33.8559	66.6676	-1.19	-0.10	0.00	17.51	7.290	-0.06501	7.13367	0.0
33.8759	66.6676	-1.19	-0.10	0.00	17.51	7.290	-0.06750	7.13365	0.0
33.8959	66.6676	-1.19	-0.10	0.00	17.51	7.290	-0.06999	7.13362	0.0
33.9159	66.6676	-1.19	-0.10	0.00	17.51	7.290	-0.07248	7.13360	2.0
33.9359	66.6676	-1.19	-0.10	0.00	17.51	7.290	-0.07497	7.13357	2.0
33.9559	66.6676	-1.19	-0.10	0.00	17.51	7.290	-0.07746	7.13354	2.0
33.9759	66.6676	-1.19	-0.10	0.00	17.51	7.290	-0.07995	7.13352	2.0
33.9959	66.6676	-1.19	-0.10	0.00	17.51	7.290	-0.08244	7.13349	0.0
34.0159	66.6676	-1.19	-0.10	0.00	17.51	7.290	-0.08493	7.13346	0.0
34.0359	66.6676	-1.19	-0.10	0.00	17.51	7.290	-0.08742	7.13343	2.0
34.0559	66.6676	-1.19	-0.10	0.00	17.51	7.290	-0.08991	7.13340	0.0
34.0759	66.6676	-1.19	-0.10	0.00	17.51	7.290	-0.09240	7.13337	0.0
34.0959	66.6676	-1.19	-0.10	0.00	17.51	7.290	-0.09489	7.13333	0.0
34.1159	66.6676	-1.19	-0.10	0.00	17.51	7.290	-0.09738	7.13330	0.0
34.1359	66.6676	-1.19	-0.10	0.00	17.51	7.290	-0.09987	7.13327	4.0
34.1559	66.6676	-1.19	-0.10	0.00	17.51	7.290	-0.10236	7.13323	0.0
34.1759	66.6676	-1.19	-0.10	0.00	17.51	7.290	-0.10485	7.13319	2.0
34.1959	66.6676	-1.19	-0.10	0.00	17.51	7.290	-0.10734	7.13316	0.0
34.2159	66.6676	-1.19	-0.10	0.00	17.51	7.290	-0.10983	7.13312	2.0
34.2359	66.6676	-1.19	-0.10	0.00	17.51	7.290	-0.11232	7.13308	0.0
34.2559	66.6676	-1.19	-0.10	0.00	17.51	7.290	-0.11481	7.13304	2.0
34.2759	66.6676	-1.19	-0.10	0.00	17.51	7.290	-0.11730	7.13300	0.0
34.2959	66.6676	-1.19	-0.10	0.00	17.51	7.290	-0.11979	7.13296	0.0
34.3159	66.6676	-1.19	-0.10	0.00	17.51	7.290	-0.12228	7.13292	2.0
34.3359	66.6676	-1.19	-0.10	0.00	17.51	7.290	-0.12477	7.13287	4.0
34.3559	66.6676	-1.19	-0.10	0.00	17.51	7.290	-0.12726	7.13283	0.0
34.3759	66.6676	-1.19	-0.10	0.00	17.51	7.290	-0.12975	7.13279	2.0
34.3959	66.6676	-1.19	-0.10	0.00	17.51	7.290	-0.13224	7.13274	2.0
34.4159	66.6676	-1.19	-0.10	0.00	17.51	7.290	-0.13473	7.13269	0.0
34.4359	66.6676	-1.19	-0.10	0.00	17.51	7.290	-0.13722	7.13265	4.0
34.4559	66.6676	-1.19	-0.10	0.00	17.51	7.290	-0.13971	7.13260	0.0
34.4759	66.6676	-1.19	-0.10	0.00	17.51	7.290	-0.14219	7.13255	2.0
34.4959	66.6676	-1.19	-0.10	0.00	17.51	7.290	-0.14468	7.13250	0.0
34.5159	66.6676	-1.19	-0.10	0.00	17.51	7.290	-0.14717	7.13245	4.0
34.5359	66.6676	-1.19	-0.10	0.00	17.51	7.290	-0.14966	7.13240	2.0
34.5559	66.6676	-1.19	-0.10	0.00	17.51	7.290	-0.15215	7.13234	2.0
34.5759	66.6676	-1.19	-0.10	0.00	17.51	7.290	-0.15464	7.13229	0.0
34.5959	66.6676	-1.19	-0.10	0.00	17.51	7.290	-0.15713	7.13223	0.0
34.6159	66.6676	-1.19	-0.10	0.00	17.51	7.290	-0.15962	7.13218	2.0

32.6259	66.6876	-1.19	-0.10	0.00	17.51	7.290	0.08941	7.13530	0.0
32.6459	66.6876	-1.19	-0.10	0.00	17.51	7.290	0.08692	7.13533	2.0
32.6659	66.6876	-1.19	-0.10	0.00	17.51	7.290	0.08443	7.13536	0.0
32.6859	66.6876	-1.19	-0.10	0.00	17.51	7.290	0.08194	7.13539	0.0
32.7059	66.6876	-1.19	-0.10	0.00	17.51	7.290	0.07945	7.13542	0.0
32.7259	66.6876	-1.19	-0.10	0.00	17.51	7.290	0.07695	7.13544	2.0
[...]
35.0159	69.6276	-1.19	-0.10	0.00	17.51	7.290	-0.02614	7.41168	4.0
35.0359	69.6276	-1.19	-0.10	0.00	17.51	7.290	-0.02873	7.41167	2.0
35.0559	69.6276	-1.19	-0.10	0.00	17.51	7.290	-0.03132	7.41166	2.0
35.0759	69.6276	-1.19	-0.10	0.00	17.51	7.290	-0.03390	7.41165	2.0
35.0959	69.6276	-1.19	-0.10	0.00	17.51	7.290	-0.03649	7.41164	2.0
35.1159	69.6276	-1.19	-0.10	0.00	17.51	7.290	-0.03908	7.41163	8.0
35.1359	69.6276	-1.19	-0.10	0.00	17.51	7.290	-0.04167	7.41161	4.0
35.1559	69.6276	-1.19	-0.10	0.00	17.51	7.290	-0.04425	7.41160	2.0
35.1759	69.6276	-1.19	-0.10	0.00	17.51	7.290	-0.04684	7.41158	4.0
35.1959	69.6276	-1.19	-0.10	0.00	17.51	7.290	-0.04943	7.41156	2.0
35.2159	69.6276	-1.19	-0.10	0.00	17.51	7.290	-0.05201	7.41155	0.0
35.2359	69.6276	-1.19	-0.10	0.00	17.51	7.290	-0.05460	7.41153	6.0
35.2559	69.6276	-1.19	-0.10	0.00	17.51	7.290	-0.05719	7.41151	2.0
35.2759	69.6276	-1.19	-0.10	0.00	17.51	7.290	-0.05978	7.41149	0.0
35.2959	69.6276	-1.19	-0.10	0.00	17.51	7.290	-0.06236	7.41147	4.0
35.3159	69.6276	-1.19	-0.10	0.00	17.51	7.290	-0.06495	7.41144	0.0
35.3359	69.6276	-1.19	-0.10	0.00	17.51	7.290	-0.06754	7.41142	0.0
35.3559	69.6276	-1.19	-0.10	0.00	17.51	7.290	-0.07012	7.41140	2.0
35.3759	69.6276	-1.19	-0.10	0.00	17.51	7.290	-0.07271	7.41137	0.0
35.3959	69.6276	-1.19	-0.10	0.00	17.51	7.290	-0.07530	7.41135	4.0
35.4159	69.6276	-1.19	-0.10	0.00	17.51	7.290	-0.07789	7.41132	0.0
35.4359	69.6276	-1.19	-0.10	0.00	17.51	7.290	-0.08047	7.41129	0.0
35.4559	69.6276	-1.19	-0.10	0.00	17.51	7.290	-0.08306	7.41126	0.0
35.4759	69.6276	-1.19	-0.10	0.00	17.51	7.290	-0.08565	7.41123	2.0
35.4959	69.6276	-1.19	-0.10	0.00	17.51	7.290	-0.08823	7.41120	2.0
35.5159	69.6276	-1.19	-0.10	0.00	17.51	7.290	-0.09082	7.41117	0.0
35.5359	69.6276	-1.19	-0.10	0.00	17.51	7.290	-0.09341	7.41114	2.0
35.5559	69.6276	-1.19	-0.10	0.00	17.51	7.290	-0.09599	7.41111	0.0
35.5759	69.6276	-1.19	-0.10	0.00	17.51	7.290	-0.09858	7.41107	2.0
35.5959	69.6276	-1.19	-0.10	0.00	17.51	7.290	-0.10117	7.41104	0.0
35.6159	69.6276	-1.19	-0.10	0.00	17.51	7.290	-0.10376	7.41100	6.0
35.6359	69.6276	-1.19	-0.10	0.00	17.51	7.290	-0.10634	7.41097	0.0
35.6559	69.6276	-1.19	-0.10	0.00	17.51	7.290	-0.10893	7.41093	0.0
35.6759	69.6276	-1.19	-0.10	0.00	17.51	7.290	-0.11152	7.41089	0.0
35.6959	69.6276	-1.19	-0.10	0.00	17.51	7.290	-0.11410	7.41085	0.0
35.7159	69.6276	-1.19	-0.10	0.00	17.51	7.290	-0.11669	7.41081	4.0
35.7359	69.6276	-1.19	-0.10	0.00	17.51	7.290	-0.11928	7.41077	4.0
35.7559	69.6276	-1.19	-0.10	0.00	17.51	7.290	-0.12186	7.41073	0.0
35.7759	69.6276	-1.19	-0.10	0.00	17.51	7.290	-0.12445	7.41068	0.0
35.7959	69.6276	-1.19	-0.10	0.00	17.51	7.290	-0.12704	7.41064	0.0
35.8159	69.6276	-1.19	-0.10	0.00	17.51	7.290	-0.12962	7.41059	0.0
35.8359	69.6276	-1.19	-0.10	0.00	17.51	7.290	-0.13221	7.41055	2.0
35.8559	69.6276	-1.19	-0.10	0.00	17.51	7.290	-0.13480	7.41050	6.0
35.8759	69.6276	-1.19	-0.10	0.00	17.51	7.290	-0.13738	7.41045	0.0
35.8959	69.6276	-1.19	-0.10	0.00	17.51	7.290	-0.13997	7.41041	0.0
35.9159	69.6276	-1.19	-0.10	0.00	17.51	7.290	-0.14256	7.41036	0.0
35.9359	69.6276	-1.19	-0.10	0.00	17.51	7.290	-0.14514	7.41031	0.0
35.9559	69.6276	-1.19	-0.10	0.00	17.51	7.290	-0.14773	7.41026	2.0
35.9759	69.6276	-1.19	-0.10	0.00	17.51	7.290	-0.15032	7.41020	2.0
35.9959	69.6276	-1.19	-0.10	0.00	17.51	7.290	-0.15290	7.41015	0.0
36.0159	69.6276	-1.19	-0.10	0.00	17.51	7.290	-0.15549	7.41010	4.0
36.0359	69.6276	-1.19	-0.10	0.00	17.51	7.290	-0.15808	7.41004	0.0
36.0559	69.6276	-1.19	-0.10	0.00	17.51	7.290	-0.16066	7.40999	0.0
36.0759	69.6276	-1.19	-0.10	0.00	17.51	7.290	-0.16325	7.40993	0.0
36.0959	69.6276	-1.19	-0.10	0.00	17.51	7.290	-0.16584	7.40987	0.0

File: 1.5deg-2.0deg-rsm-2h30mins_11354-as-grown_004_w-scans.dat
# filename: 1.5deg-2.0deg-rsm-2h30mins_11354-as-grown_004.dat
# reflection: (004)
# type: rotated into a series of omega scans
# x-axis: Omega_2Theta
#
# Omega	2Theta	Phi  	Chi   	X    	Y    	Z    	q_para	q_perp	Intensity
# [deg]	[deg] 	[deg]	[deg] 	[mm] 	[mm] 	[mm] 	[nm-1]	[nm-1]	[counts/s]
31.9653	66.6698	1.74	0.02	10.00	20.00	7.278	0.17052	7.13214	0.0
31.9853	66.6698	1.74	0.02	10.00	20.00	7.278	0.16803	7.13219	0.0
32.0053	66.6698	1.74	0.02	10.00	20.00	7.278	0.16554	7.13225	4.0
32.0253	66.6698	1.74	0.02	10.00	20.00	7.278	0.16305	7.13231	0.0
32.0453	66.6698	1.74	0.02	10.00	20.00	7.278	0.16056	7.13237	0.0
32.0653	66.6698	1.74	0.02	10.00	20.00	7.278	0.15807	7.13242	0.0
32.0853	66.6698	1.74	0.02	10.00	20.00	7.278	0.15558	7.13248	0.0
32.1053	66.6698	1.74	0.02	10.00	20.00	7.278	0.15309	7.13253	0.0
32.1253	66.6698	1.74	0.02	10.00	20.00	7.278	0.15060	7.13258	0.0
32.1453	66.6698	1.74	0.02	10.00	20.00	7.278	0.14811	7.13264	0.0
32.1653	66.6698	1.74	0.02	10.00	20.00	7.278	0.14562	7.13269	2.0
32.1853	66.6698	1.74	0.02	10.00	20.00	7.278	0.14313	7.13274	0.0
32.2053	66.6698	1.74	0.02	10.00	20.00	7.278	0.14064	7.13279	4.0
32.2253	66.6698	1.74	0.02	10.00	20.00	7.278	0.13815	7.13284	2.0
32.2453	66.6698	1.74	0.02	10.00	20.00	7.278	0.13566	7.13288	0.0
32.2653	66.6698	1.74	0.02	10.00	20.00	7.278	0.13317	7.13293	2.0
32.2853	66.6698	1.74	0.02	10.00	20.00	7.278	0.13068	7.13298	0.0
32.3053	66.6698	1.74	0.02	10.00	20.00	7.278	0.12819	7.13302	0.0
32.3253	66.6698	1.74	0.02	10.00	20.00	7.278	0.12570	7.13307	2.0
32.3453	66.6698	1.74	0.02	10.00	20.00	7.278	0.12321	7.13311	0.0
32.3653	66.6698	1.74	0.02	10.00	20.00	7.278	0.12072	7.13315	2.0
32.3853	66.6698	1.74	0.02	10.00	20.00	7.278	0.11823	7.13319	0.0
32.4053	66.6698	1.74	0.02	10.00	20.00	7.278	0.11574	7.13323	4.0
32.4253	66.6698	1.74	0.02	10.00	20.00	7.278	0.11325	7.13327	0.0
32.4453	66.6698	1.74	0.02	10.00	20.00	7.278	0.11076	7.13331	0.0
32.4653	66.6698	1.74	0.02	10.00	20.00	7.278	0.10827	7.13335	0.0
32.4853	66.6698	1.74	0.02	10.00	20.00	7.278	0.10578	7.13339	0.0
32.5053	66.6698	1.74	0.02	10.00	20.00	7.278	0.10329	7.13343	2.0
32.5253	66.6698	1.74	0.02	10.00	20.00	7.278	0.10080	7.13346	0.0
32.5453	66.6698	1.74	0.02	10.00	20.00	7.278	0.09831	7.13350	0.0
32.5653	66.6698	1.74	0.02	10.00	20.00	7.278	0.09582	7.13353	0.0
32.5853	66.6698	1.74	0.02	10.00	20.00	7.278	0.09333	7.13356	0.0
32.6053	66.6698	1.74	0.02	10.00	20.00	7.278	0.09084	7.13360	4.0
32.6253	66.6698	1.74	0.02	10.00	20.00	7.278	0.08835	7.13363	0.0
32.6453	66.6698	1.74	0.02	10.00	20.00	7.278	0.08586	7.13366	0.0
32.6653	66.6698	1.74	0.02	10.00	20.00	7.278	0.08337	7.13369	4.0
32.6853	66.6698	1.74	0.02	10.00	20.00	7.278	0.08088	7.13371	2.0
32.7053	66.6698	1.74	0.02	10.00	20.00	7.278	0.07839	7.13374	2.0
32.7253	66.6698	1.74	0.02	10.00	20.00	7.278	0.07590	7.13377	0.0
32.7453	66.6698	1.74	0.02	10.00	20.00	7.278	0.07341	7.13380	2.0
32.7653	66.6698	1.74	0.02	10.00	20.00	7.278	0.07092	7.13382	4.0
32.7853	66.6698	1.74	0.02	10.00	20.00	7.278	0.06843	7.13385	0.0
32.8053	66.6698	1.74	0.02	10.00	20.00	7.278	0.06594	7.13387	2.0
32.8253	66.6698	1.74	0.02	10.00	20.00	7.278	0.06345	7.13389	0.0
32.8453	66.6698	1.74	0.02	10.00	20.00	7.278	0.06096	7.13391	0.0
32.8653	66.6698	1.74	0.02	10.00	20.00	7.278	0.05847	7.13393	0.0
32.8853	66.6698	1.74	0.02	10.00	20.00	7.278	0.05598	7.13395	0.0
32.9053	66.6698	1.74	0.02	10.00	20.00	7.278	0.05349	7.13397	2.0
32.9253	66.6698	1.74	0.02	10.00	20.00	7.278	0.05100	7.13399	2.0
32.9453	66.6698	1.74	0.02	10.00	20.00	7.278	0.04851	7.13401	2.0
32.9653	66.6698	1.74	0.02	10.00	20.00	7.278	0.04602	7.13402	0.0
32.9853	66.6698	1.74	0.02	10.00	20.00	7.278	0.04353	7.13404	6.0
33.0053	66.6698	1.74	0.02	10.00	20.00	7.278	0.04104	7.13406	0.0
33.0253	66.6698	1.74	0.02	10.00	20.00	7.278	0.03855	7.13407	0.0
33.0453	66.6698	1.74	0.02	10.00	20.00	7.278	0.03606	7.13408	0.0
33.0653	66.6698	1.74	0.02	10.00	20.00	7.278	0.03357	7.13409	0.0
33.0853	66.6698	1.74	0.02	10.00	20.00	7.278	0.03108	7.13411	4.0
33.1053	66.6698	1.74	0.02	10.00	20.00	7.278	0.02859	7.13412	0.0
33.1253	66.6698	1.74	0.02	10.00	20.00	7.278	0.02610	7.13413	2.0
33.1453	66.6698	1.74	0.02	10.00	20.00	7.278	0.02361	7.13413	2.0
33.1653	66.6698	1.74	0.02	10.00	20.00	7.278	0.02112	7.13414	2.0
33.1853	66.6698	1.74	0.02	10.00	20.00	7.278	0.01863	7.13415	0.0
33.2053	66.6698	1.74	0.02	10.00	20.00	7.278	0.01614	7.13416	2.0
33.2253	66.6698	1.74	0.02	10.00	20.00	7.278	0.01365	7.13416	0.0
33.2453	66.6698	1.74	0.02	10.00	20.00	7.278	0.01116	7.13416	0.0
33.2653	66.6698	1.74	0.02	10.00	20.00	7.278	0.00867	7.13417	0.0
33.2853	66.6698	1.74	0.02	10.00	20.00	7.278	0.00618	7.13417	0.0
33.3053	66.6698	1.74	0.02	10.00	20.00	7.278	0.00369	7.13417	8.0
33.3253	66.6698	1.74	0.02	10.00	20.00	7.278	0.00120	7.13417	0.0
33.3453	66.6698	1.74	0.02	10.00	20.00	7.278	-0.00129	7.13417	0.0
33.3653	66.6698	1.74	0.02	10.00	20.00	7.278	-0.00379	7.13417	0.0
33.3853	66.6698	1.74	0.02	10.00	20.00	7.278	-0.00628	7.13417	0.0
33.4053	66.6698	1.74	0.02	10.00	20.00	7.278	-0.00877	7.13417	2.0
33.4253	66.6698	1.74	0.02	10.00	20.00	7.278	-0.01126	7.13416	2.0
33.4453	66.6698	1.74	0.02	10.00	20.00	7.278	-0.01375	7.13416	0.0
33.4653	66.6698	1.74	0.02	10.00	20.00	7.278	-0.01624	7.13415	0.0
33.4853	66.6698	1.74	0.02	10.00	20.00	7.278	-0.01873	7.13415	0.0
33.5053	66.6698	1.74	0.02	10.00	20.00	7.278	-0.02122	7.13414	0.0
33.5253	66.6698	1.74	0.02	10.00	20.00	7.278	-0.02371	7.13413	0.0
33.5453	66.6698	1.74	0.02	10.00	20.00	7.278	-0.02620	7.13413	2.0
33.5653	66.6698	1.74	0.02	10.00	20.00	7.278	-0.02869	7.13412	0.0
33.5853	66.6698	1.74	0.02	10.00	20.00	7.278	-0.03118	7.13411	2.0
33.6053	66.6698	1.74	0.02	10.00	20.00	7.278	-0.03367	7.13409	2.0
33.6253	66.6698	1.74	0.02	10.00	20.00	7.278	-0.03616	7.13408	0.0
33.6453	66.6698	1.74	0.02	10.00	20.00	7.278	-0.03865	7.13407	0.0
33.6653	66.6698	1.74	0.02	10.00	20.00	7.278	-0.04114	7.13405	4.0
33.6853	66.6698	1.74	0.02	10.00	20.00	7.278	-0.04363	7.13404	0.0
33.7053	66.6698	1.74	0.02	10.00	20.00	7.278	-0.04612	7.13402	0.0
33.7253	66.6698	1.74	0.02	10.00	20.00	7.278	-0.04861	7.13401	0.0
33.7453	66.6698	1.74	0.02	10.00	20.00	7.278	-0.05110	7.13399	2.0
33.7653	66.6698	1.74	0.02	10.00	20.00	7.278	-0.05359	7.13397	2.0
33.7853	66.6698	1.74	0.02	10.00	20.00	7.278	-0.05608	7.13395	2.0
33.8053	66.6698	1.74	0.02	10.00	20.00	7.278	-0.05857	7.13393	0.0
33.8253	66.6698	1.74	0.02	10.00	20.00	7.278	-0.06106	7.13391	0.0
33.8453	66.6698	1.74	0.02	10.00	20.00	7.278	-0.06355	7.13389	2.0
33.8653	66.6698	1.74	0.02	10.00	20.00	7.278	-0.06604	7.13387	0.0
33.8853	66.6698	1.74	0.02	10.00	20.00	7.278	-0.06853	7.13384	0.0
33.9053	66.6698	1.74	0.02	10.00	20.00	7.278	-0.07102	7.13382	0.0
33.9253	66.6698	1.74	0.02	10.00	20.00	7.278	-0.07351	7.13379	4.0
33.9453	66.6698	1.74	0.02	10.00	20.00	7.278	-0.07600	7.13377	0.0
33.9653	66.6698	1.74	0.02	10.00	20.00	7.278	-0.07849	7.13374	4.0

31.9753	66.6898	1.74	0.02	10.00	20.00	7.278	0.17056	7.13403	0.0
31.9953	66.6898	1.74	0.02	10.00	20.00	7.278	0.16807	7.13409	0.0
32.0153	66.6898	1.74	0.02	10.00	20.00	7.278	0.16558	7.13414	0.0
32.0353	66.6898	1.74	0.02	10.00	20.00	7.278	0.16309	7.13420	2.0
32.0553	66.6898	1.74	0.02	10.00	20.00	7.278	0.16060	7.13426	0.0
32.0753	66.6898	1.74	0.02	10.00	20.00	7.278	0.15811	7.13431	0.0
32.0953	66.6898	1.74	0.02	10.00	20.00	7.278	0.15562	7.13437	0.0
32.1153	66.6898	1.74	0.02	10.00	20.00	7.278	0.15313	7.13442	0.0
[...]
34.3453	69.6298	1.74	0.02	10.00	20.00	7.278	0.06075	7.41168	4.0
34.3653	69.6298	1.74	0.02	10.00	20.00	7.278	0.05816	7.41170	4.0
34.3853	69.6298	1.74	0.02	10.00	20.00	7.278	0.05557	7.41172	4.0
34.4053	69.6298	1.74	0.02	10.00	20.00	7.278	0.05299	7.41174	2.0
34.4253	69.6298	1.74	0.02	10.00	20.00	7.278	0.05040	7.41176	2.0
34.4453	69.6298	1.74	0.02	10.00	20.00	7.278	0.04781	7.41178	2.0
34.4653	69.6298	1.74	0.02	10.00	20.00	7.278	0.04522	7.41179	0.0
34.4853	69.6298	1.74	0.02	10.00	20.00	7.278	0.04264	7.41181	0.0
34.5053	69.6298	1.74	0.02	10.00	20.00	7.278	0.04005	7.41182	4.0
34.5253	69.6298	1.74	0.02	10.00	20.00	7.278	0.03746	7.41184	2.0
34.5453	69.6298	1.74	0.02	10.00	20.00	7.278	0.03488	7.41185	2.0
34.5653	69.6298	1.74	0.02	10.00	20.00	7.278	0.03229	7.41186	2.0
34.5853	69.6298	1.74	0.02	10.00	20.00	7.278	0.02970	7.41187	0.0
34.6053	69.6298	1.74	0.02	10.00	20.00	7.278	0.02711	7.41188	4.0
34.6253	69.6298	1.74	0.02	10.00	20.00	7.278	0.02453	7.41189	2.0
34.6453	69.6298	1.74	0.02	10.00	20.00	7.278	0.02194	7.41190	6.0
34.6653	69.6298	1.74	0.02	10.00	20.00	7.278	0.01935	7.41191	2.0
34.6853	69.6298	1.74	0.02	10.00	20.00	7.278	0.01677	7.41191	0.0
34.7053	69.6298	1.74	0.02	10.00	20.00	7.278	0.01418	7.41192	0.0
34.7253	69.6298	1.74	0.02	10.00	20.00	7.278	0.01159	7.41192	4.0
34.7453	69.6298	1.74	0.02	10.00	20.00	7.278	0.00900	7.41193	0.0
34.7653	69.6298	1.74	0.02	10.00	20.00	7.278	0.00642	7.41193	0.0
34.7853	69.6298	1.74	0.02	10.00	20.00	7.278	0.00383	7.41193	2.0
34.8053	69.6298	1.74	0.02	10.00	20.00	7.278	0.00124	7.41193	2.0
34.8253	69.6298	1.74	0.02	10.00	20.00	7.278	-0.00135	7.41193	2.0
34.8453	69.6298	1.74	0.02	10.00	20.00	7.278	-0.00393	7.41193	0.0
34.8653	69.6298	1.74	0.02	10.00	20.00	7.278	-0.00652	7.41193	4.0
34.8853	69.6298	1.74	0.02	10.00	20.00	7.278	-0.00911	7.41193	2.0
34.9053	69.6298	1.74	0.02	10.00	20.00	7.278	-0.01169	7.41192	8.0
34.9253	69.6298	1.74	0.02	10.00	20.00	7.278	-0.01428	7.41192	2.0
34.9453	69.6298	1.74	0.02	10.00	20.00	7.278	-0.01687	7.41191	0.0
34.9653	69.6298	1.74	0.02	10.00	20.00	7.278	-0.01946	7.41191	0.0
34.9853	69.6298	1.74	0.02	10.00	20.00	7.278	-0.02204	7.41190	2.0
35.0053	69.6298	1.74	0.02	10.00	20.00	7.278	-0.02463	7.41189	2.0
35.0253	69.6298	1.74	0.02	10.00	20.00	7.278	-0.02722	7.41188	2.0
35.0453	69.6298	1.74	0.02	10.00	20.00	7.278	-0.02981	7.41187	2.0
35.0653	69.6298	1.74	0.02	10.00	20.00	7.278	-0.03239	7.41186	0.0
35.0853	69.6298	1.74	0.02	10.00	20.00	7.278	-0.03498	7.41185	0.0
35.1053	69.6298	1.74	0.02	10.00	20.00	7.278	-0.03757	7.41184	4.0
35.1253	69.6298	1.74	0.02	10.00	20.00	7.278	-0.04015	7.41182	0.0
35.1453	69.6298	1.74	0.02	10.00	20.00	7.278	-0.04274	7.41181	2.0
35.1653	69.6298	1.74	0.02	10.00	20.00	7.278	-0.04533	7.41179	2.0
35.1853	69.6298	1.74	0.02	10.00	20.00	7.278	-0.04792	7.41178	0.0
35.2053	69.6298	1.74	0.02	10.00	20.00	7.278	-0.05050	7.41176	0.0
35.2253	69.6298	1.74	0.02	10.00	20.00	7.278	-0.05309	7.41174	0.0
35.2453	69.6298	1.74	0.02	10.00	20.00	7.278	-0.05568	7.41172	0.0
35.2653	69.6298	1.74	0.02	10.00	20.00	7.278	-0.05826	7.41170	8.0
35.2853	69.6298	1.74	0.02	10.00	20.00	7.278	-0.06085	7.41168	4.0
35.3053	69.6298	1.74	0.02	10.00	20.00	7.278	-0.06344	7.41166	2.0
35.3253	69.6298	1.74	0.02	10.00	20.00	7.278	-0.06603	7.41164	0.0
35.3453	69.6298	1.74	0.02	10.00	20.00	7.278	-0.06861	7.41162	0.0
35.3653	69.6298	1.74	0.02	10.00	20.00	7.278	-0.07120	7.41159	2.0
35.3853	69.6298	1.74	0.02	10.00	20.00	7.278	-0.07379	7.41157	2.0
35.4053	69.6298	1.74	0.02	10.00	20.00	7.278	-0.07637	7.41154	4.0
35.4253	69.6298	1.74	0.02	10.00	20.00	7.278	-0.07896	7.41151	0.0
35.4453	69.6298	1.74	0.02	10.00	20.00	7.278	-0.08155	7.41148	0.0