Folder: Thesis_XRD/Data/Omega2Theta (part 4)

File: 1.5deg-2.0deg-rsm-2h30mins_11371-as-grown_004_w_000-100.dat
# filename: 1.5deg-2.0deg-rsm-2h30mins_11371-as-grown_004.dat
# reflection: (004)
# type: Projection of 100 omega2theta scans
# x-axis: omega2theta
#
# Omega	2Theta	Phi  	Chi   	X    	Y    	Z    	q_para	q_perp	Intensity
# [deg]	[deg] 	[deg]	[deg] 	[mm] 	[mm] 	[mm] 	[nm-1]	[nm-1]	[counts/s]
33.7127	67.1740	0.79	0.03	5.00	5.00	7.412	-0.01576	7.18144	1.4
33.7227	67.1940	0.79	0.03	5.00	5.00	7.412	-0.01576	7.18333	1.2
33.7327	67.2140	0.79	0.03	5.00	5.00	7.412	-0.01576	7.18521	1.6
33.7427	67.2340	0.79	0.03	5.00	5.00	7.412	-0.01577	7.18710	1.6
33.7527	67.2540	0.79	0.03	5.00	5.00	7.412	-0.01577	7.18899	1.4
33.7627	67.2740	0.79	0.03	5.00	5.00	7.412	-0.01578	7.19087	1.5
33.7727	67.2940	0.79	0.03	5.00	5.00	7.412	-0.01578	7.19276	1.2
33.7827	67.3140	0.79	0.03	5.00	5.00	7.412	-0.01578	7.19465	1.3
33.7927	67.3340	0.79	0.03	5.00	5.00	7.412	-0.01579	7.19653	1.4
33.8027	67.3540	0.79	0.03	5.00	5.00	7.412	-0.01579	7.19842	1.6
33.8127	67.3740	0.79	0.03	5.00	5.00	7.412	-0.01580	7.20030	1.3
33.8227	67.3940	0.79	0.03	5.00	5.00	7.412	-0.01580	7.20219	1.6
33.8327	67.4140	0.79	0.03	5.00	5.00	7.412	-0.01580	7.20407	1.9
33.8427	67.4340	0.79	0.03	5.00	5.00	7.412	-0.01581	7.20596	2.0
33.8527	67.4540	0.79	0.03	5.00	5.00	7.412	-0.01581	7.20784	1.8
33.8627	67.4740	0.79	0.03	5.00	5.00	7.412	-0.01582	7.20973	1.8
33.8727	67.4940	0.79	0.03	5.00	5.00	7.412	-0.01582	7.21161	2.3
33.8827	67.5140	0.79	0.03	5.00	5.00	7.412	-0.01583	7.21349	1.9
33.8927	67.5340	0.79	0.03	5.00	5.00	7.412	-0.01583	7.21538	2.1
33.9027	67.5540	0.79	0.03	5.00	5.00	7.412	-0.01583	7.21726	2.2
33.9127	67.5740	0.79	0.03	5.00	5.00	7.412	-0.01584	7.21914	2.3
33.9227	67.5940	0.79	0.03	5.00	5.00	7.412	-0.01584	7.22103	2.4
33.9327	67.6140	0.79	0.03	5.00	5.00	7.412	-0.01585	7.22291	2.9
33.9427	67.6340	0.79	0.03	5.00	5.00	7.412	-0.01585	7.22479	2.5
33.9527	67.6540	0.79	0.03	5.00	5.00	7.412	-0.01585	7.22667	2.8
33.9627	67.6740	0.79	0.03	5.00	5.00	7.412	-0.01586	7.22856	3.2
33.9727	67.6940	0.79	0.03	5.00	5.00	7.412	-0.01586	7.23044	2.9
33.9827	67.7140	0.79	0.03	5.00	5.00	7.412	-0.01587	7.23232	2.9
33.9927	67.7340	0.79	0.03	5.00	5.00	7.412	-0.01587	7.23420	3.5
34.0027	67.7540	0.79	0.03	5.00	5.00	7.412	-0.01588	7.23608	4.2
34.0127	67.7740	0.79	0.03	5.00	5.00	7.412	-0.01588	7.23796	4.7
34.0227	67.7940	0.79	0.03	5.00	5.00	7.412	-0.01588	7.23984	5.6
34.0327	67.8140	0.79	0.03	5.00	5.00	7.412	-0.01589	7.24172	9.7
34.0427	67.8340	0.79	0.03	5.00	5.00	7.412	-0.01589	7.24361	19.6
34.0527	67.8540	0.79	0.03	5.00	5.00	7.412	-0.01590	7.24549	73.3
34.0627	67.8740	0.79	0.03	5.00	5.00	7.412	-0.01590	7.24737	285.2
34.0727	67.8940	0.79	0.03	5.00	5.00	7.412	-0.01590	7.24924	1148.0
34.0827	67.9140	0.79	0.03	5.00	5.00	7.412	-0.01591	7.25112	2829.1
34.0927	67.9340	0.79	0.03	5.00	5.00	7.412	-0.01591	7.25300	2349.9
34.1027	67.9540	0.79	0.03	5.00	5.00	7.412	-0.01592	7.25488	812.7
34.1127	67.9740	0.79	0.03	5.00	5.00	7.412	-0.01592	7.25676	321.9
34.1227	67.9940	0.79	0.03	5.00	5.00	7.412	-0.01592	7.25864	241.1
34.1327	68.0140	0.79	0.03	5.00	5.00	7.412	-0.01593	7.26052	222.8
34.1427	68.0340	0.79	0.03	5.00	5.00	7.412	-0.01593	7.26240	224.7
34.1527	68.0540	0.79	0.03	5.00	5.00	7.412	-0.01594	7.26427	226.8
34.1627	68.0740	0.79	0.03	5.00	5.00	7.412	-0.01594	7.26615	236.2
34.1727	68.0940	0.79	0.03	5.00	5.00	7.412	-0.01594	7.26803	233.3
34.1827	68.1140	0.79	0.03	5.00	5.00	7.412	-0.01595	7.26991	245.7
34.1927	68.1340	0.79	0.03	5.00	5.00	7.412	-0.01595	7.27178	252.3
34.2027	68.1540	0.79	0.03	5.00	5.00	7.412	-0.01596	7.27366	264.3
34.2127	68.1740	0.79	0.03	5.00	5.00	7.412	-0.01596	7.27554	266.4
34.2227	68.1940	0.79	0.03	5.00	5.00	7.412	-0.01597	7.27741	270.1
34.2327	68.2140	0.79	0.03	5.00	5.00	7.412	-0.01597	7.27929	264.7
34.2427	68.2340	0.79	0.03	5.00	5.00	7.412	-0.01597	7.28116	263.9
34.2527	68.2540	0.79	0.03	5.00	5.00	7.412	-0.01598	7.28304	259.7
34.2627	68.2740	0.79	0.03	5.00	5.00	7.412	-0.01598	7.28492	255.0
34.2727	68.2940	0.79	0.03	5.00	5.00	7.412	-0.01599	7.28679	248.6
34.2827	68.3140	0.79	0.03	5.00	5.00	7.412	-0.01599	7.28867	242.6
34.2927	68.3340	0.79	0.03	5.00	5.00	7.412	-0.01600	7.29054	234.4
34.3027	68.3540	0.79	0.03	5.00	5.00	7.412	-0.01600	7.29242	222.8
34.3127	68.3740	0.79	0.03	5.00	5.00	7.412	-0.01600	7.29429	220.0
34.3227	68.3940	0.79	0.03	5.00	5.00	7.412	-0.01601	7.29616	219.5
34.3327	68.4140	0.79	0.03	5.00	5.00	7.412	-0.01601	7.29804	217.8
34.3427	68.4340	0.79	0.03	5.00	5.00	7.412	-0.01602	7.29991	217.4
34.3527	68.4540	0.79	0.03	5.00	5.00	7.412	-0.01602	7.30178	217.7
34.3627	68.4740	0.79	0.03	5.00	5.00	7.412	-0.01602	7.30366	215.7
34.3727	68.4940	0.79	0.03	5.00	5.00	7.412	-0.01603	7.30553	217.1
34.3827	68.5140	0.79	0.03	5.00	5.00	7.412	-0.01603	7.30740	207.8
34.3927	68.5340	0.79	0.03	5.00	5.00	7.412	-0.01604	7.30928	203.7
34.4027	68.5540	0.79	0.03	5.00	5.00	7.412	-0.01604	7.31115	194.4
34.4127	68.5740	0.79	0.03	5.00	5.00	7.412	-0.01604	7.31302	192.3
34.4227	68.5940	0.79	0.03	5.00	5.00	7.412	-0.01605	7.31489	188.3
34.4327	68.6140	0.79	0.03	5.00	5.00	7.412	-0.01605	7.31676	183.0
34.4427	68.6340	0.79	0.03	5.00	5.00	7.412	-0.01606	7.31864	183.9
34.4527	68.6540	0.79	0.03	5.00	5.00	7.412	-0.01606	7.32051	183.3
34.4627	68.6740	0.79	0.03	5.00	5.00	7.412	-0.01606	7.32238	177.1
34.4727	68.6940	0.79	0.03	5.00	5.00	7.412	-0.01607	7.32425	181.1
34.4827	68.7140	0.79	0.03	5.00	5.00	7.412	-0.01607	7.32612	179.3
34.4927	68.7340	0.79	0.03	5.00	5.00	7.412	-0.01608	7.32799	175.2
34.5027	68.7540	0.79	0.03	5.00	5.00	7.412	-0.01608	7.32986	173.1
34.5127	68.7740	0.79	0.03	5.00	5.00	7.412	-0.01609	7.33173	166.2
34.5227	68.7940	0.79	0.03	5.00	5.00	7.412	-0.01609	7.33360	167.8
34.5327	68.8140	0.79	0.03	5.00	5.00	7.412	-0.01609	7.33547	165.0
34.5427	68.8340	0.79	0.03	5.00	5.00	7.412	-0.01610	7.33734	164.5
34.5527	68.8540	0.79	0.03	5.00	5.00	7.412	-0.01610	7.33921	160.4
34.5627	68.8740	0.79	0.03	5.00	5.00	7.412	-0.01611	7.34108	158.3
34.5727	68.8940	0.79	0.03	5.00	5.00	7.412	-0.01611	7.34294	157.6
34.5827	68.9140	0.79	0.03	5.00	5.00	7.412	-0.01611	7.34481	150.9
34.5927	68.9340	0.79	0.03	5.00	5.00	7.412	-0.01612	7.34668	149.2
34.6027	68.9540	0.79	0.03	5.00	5.00	7.412	-0.01612	7.34855	149.6
34.6127	68.9740	0.79	0.03	5.00	5.00	7.412	-0.01613	7.35042	145.2
34.6227	68.9940	0.79	0.03	5.00	5.00	7.412	-0.01613	7.35228	148.8
34.6327	69.0140	0.79	0.03	5.00	5.00	7.412	-0.01613	7.35415	144.7
34.6427	69.0340	0.79	0.03	5.00	5.00	7.412	-0.01614	7.35602	144.7
34.6527	69.0540	0.79	0.03	5.00	5.00	7.412	-0.01614	7.35788	139.0
34.6627	69.0740	0.79	0.03	5.00	5.00	7.412	-0.01615	7.35975	137.3
34.6727	69.0940	0.79	0.03	5.00	5.00	7.412	-0.01615	7.36162	131.6
34.6827	69.1140	0.79	0.03	5.00	5.00	7.412	-0.01616	7.36348	147.7
34.6927	69.1340	0.79	0.03	5.00	5.00	7.412	-0.01616	7.36535	749.5
34.7027	69.1540	0.79	0.03	5.00	5.00	7.412	-0.01616	7.36721	5098.3
34.7127	69.1740	0.79	0.03	5.00	5.00	7.412	-0.01617	7.36908	1920.0
34.7227	69.1940	0.79	0.03	5.00	5.00	7.412	-0.01617	7.37094	301.4
34.7327	69.2140	0.79	0.03	5.00	5.00	7.412	-0.01617	7.37281	49.0
34.7427	69.2340	0.79	0.03	5.00	5.00	7.412	-0.01618	7.37467	20.6
34.7527	69.2540	0.79	0.03	5.00	5.00	7.412	-0.01618	7.37654	8.2
34.7627	69.2740	0.79	0.03	5.00	5.00	7.412	-0.01619	7.37840	6.0
34.7727	69.2940	0.79	0.03	5.00	5.00	7.412	-0.01619	7.38027	4.7
34.7827	69.3140	0.79	0.03	5.00	5.00	7.412	-0.01620	7.38213	3.7
34.7927	69.3340	0.79	0.03	5.00	5.00	7.412	-0.01620	7.38399	3.7
34.8027	69.3540	0.79	0.03	5.00	5.00	7.412	-0.01620	7.38586	3.3
34.8127	69.3740	0.79	0.03	5.00	5.00	7.412	-0.01621	7.38772	3.6
34.8227	69.3940	0.79	0.03	5.00	5.00	7.412	-0.01621	7.38958	3.3
34.8327	69.4140	0.79	0.03	5.00	5.00	7.412	-0.01622	7.39145	2.9
34.8427	69.4340	0.79	0.03	5.00	5.00	7.412	-0.01622	7.39331	2.3
34.8527	69.4540	0.79	0.03	5.00	5.00	7.412	-0.01622	7.39517	2.8
34.8627	69.4740	0.79	0.03	5.00	5.00	7.412	-0.01623	7.39703	2.6
34.8727	69.4940	0.79	0.03	5.00	5.00	7.412	-0.01623	7.39890	2.6
34.8827	69.5140	0.79	0.03	5.00	5.00	7.412	-0.01624	7.40076	2.2
34.8927	69.5340	0.79	0.03	5.00	5.00	7.412	-0.01624	7.40262	2.0
34.9027	69.5540	0.79	0.03	5.00	5.00	7.412	-0.01624	7.40448	2.4
34.9127	69.5740	0.79	0.03	5.00	5.00	7.412	-0.01625	7.40634	2.6
34.9227	69.5940	0.79	0.03	5.00	5.00	7.412	-0.01625	7.40820	2.2
34.9327	69.6140	0.79	0.03	5.00	5.00	7.412	-0.01626	7.41006	2.4
34.9427	69.6340	0.79	0.03	5.00	5.00	7.412	-0.01626	7.41192	2.3
34.9527	69.6540	0.79	0.03	5.00	5.00	7.412	-0.01627	7.41378	2.4
34.9627	69.6740	0.79	0.03	5.00	5.00	7.412	-0.01627	7.41564	2.3
34.9727	69.6940	0.79	0.03	5.00	5.00	7.412	-0.01627	7.41750	2.1
34.9827	69.7140	0.79	0.03	5.00	5.00	7.412	-0.01628	7.41936	2.2
34.9927	69.7340	0.79	0.03	5.00	5.00	7.412	-0.01628	7.42122	2.1
35.0027	69.7540	0.79	0.03	5.00	5.00	7.412	-0.01629	7.42308	1.7
35.0127	69.7740	0.79	0.03	5.00	5.00	7.412	-0.01629	7.42494	2.1
35.0227	69.7940	0.79	0.03	5.00	5.00	7.412	-0.01629	7.42679	2.1
35.0327	69.8140	0.79	0.03	5.00	5.00	7.412	-0.01630	7.42865	1.6
35.0427	69.8340	0.79	0.03	5.00	5.00	7.412	-0.01630	7.43051	1.8
35.0527	69.8540	0.79	0.03	5.00	5.00	7.412	-0.01631	7.43237	1.7
35.0627	69.8740	0.79	0.03	5.00	5.00	7.412	-0.01631	7.43423	1.4
35.0727	69.8940	0.79	0.03	5.00	5.00	7.412	-0.01631	7.43608	1.4
35.0827	69.9140	0.79	0.03	5.00	5.00	7.412	-0.01632	7.43794	1.4
35.0927	69.9340	0.79	0.03	5.00	5.00	7.412	-0.01632	7.43980	1.5
35.1027	69.9540	0.79	0.03	5.00	5.00	7.412	-0.01633	7.44165	1.6
35.1127	69.9740	0.79	0.03	5.00	5.00	7.412	-0.01633	7.44351	1.6
35.1227	69.9940	0.79	0.03	5.00	5.00	7.412	-0.01633	7.44537	1.4
35.1327	70.0140	0.79	0.03	5.00	5.00	7.412	-0.01634	7.44722	1.2
35.1427	70.0340	0.79	0.03	5.00	5.00	7.412	-0.01634	7.44908	1.5
35.1527	70.0540	0.79	0.03	5.00	5.00	7.412	-0.01635	7.45093	1.2
35.1627	70.0740	0.79	0.03	5.00	5.00	7.412	-0.01635	7.45279	1.0
35.1727	70.0940	0.79	0.03	5.00	5.00	7.412	-0.01635	7.45464	1.2
35.1827	70.1140	0.79	0.03	5.00	5.00	7.412	-0.01636	7.45650	1.3
35.1927	70.1340	0.79	0.03	5.00	5.00	7.412	-0.01636	7.45835	1.3

File: 2.0deg-2.0deg-rsm-3h10mins_11352-annealed_224_w_000-100.dat
# filename: 2.0deg-2.0deg-rsm-3h10mins_11352-annealed_224.dat
# reflection: (004)
# type: Projection of 100 omega2theta scans
# x-axis: omega2theta
#
# Omega	2Theta	Phi  	Chi   	X    	Y    	Z    	q_para	q_perp	Intensity
# [deg]	[deg] 	[deg]	[deg] 	[mm] 	[mm] 	[mm] 	[nm-1]	[nm-1]	[counts/s]
7.5575	85.0512	-1.19	0.12	0.00	17.51	7.290	5.02886	7.19047	1.3
7.5775	85.0912	-1.19	0.12	0.00	17.51	7.290	5.03077	7.19320	1.1
7.5975	85.1312	-1.19	0.12	0.00	17.51	7.290	5.03268	7.19594	1.5
7.6175	85.1712	-1.19	0.12	0.00	17.51	7.290	5.03459	7.19867	1.3
7.6375	85.2112	-1.19	0.12	0.00	17.51	7.290	5.03651	7.20141	1.3
7.6575	85.2512	-1.19	0.12	0.00	17.51	7.290	5.03842	7.20414	1.4
7.6775	85.2912	-1.19	0.12	0.00	17.51	7.290	5.04033	7.20687	1.1
7.6975	85.3312	-1.19	0.12	0.00	17.51	7.290	5.04224	7.20960	1.3
7.7175	85.3712	-1.19	0.12	0.00	17.51	7.290	5.04415	7.21233	1.2
7.7375	85.4112	-1.19	0.12	0.00	17.51	7.290	5.04606	7.21506	1.8
7.7575	85.4512	-1.19	0.12	0.00	17.51	7.290	5.04796	7.21779	1.5
7.7775	85.4912	-1.19	0.12	0.00	17.51	7.290	5.04987	7.22052	1.3
7.7975	85.5312	-1.19	0.12	0.00	17.51	7.290	5.05178	7.22324	1.4
7.8175	85.5712	-1.19	0.12	0.00	17.51	7.290	5.05368	7.22597	1.5
7.8375	85.6112	-1.19	0.12	0.00	17.51	7.290	5.05559	7.22869	1.8
7.8575	85.6512	-1.19	0.12	0.00	17.51	7.290	5.05749	7.23142	1.5
7.8775	85.6912	-1.19	0.12	0.00	17.51	7.290	5.05940	7.23414	1.7
7.8975	85.7312	-1.19	0.12	0.00	17.51	7.290	5.06130	7.23686	1.6
7.9175	85.7712	-1.19	0.12	0.00	17.51	7.290	5.06321	7.23958	1.8
7.9375	85.8112	-1.19	0.12	0.00	17.51	7.290	5.06511	7.24231	1.9
7.9575	85.8512	-1.19	0.12	0.00	17.51	7.290	5.06701	7.24502	2.1
7.9775	85.8912	-1.19	0.12	0.00	17.51	7.290	5.06891	7.24774	2.1
7.9975	85.9312	-1.19	0.12	0.00	17.51	7.290	5.07081	7.25046	2.3
8.0175	85.9712	-1.19	0.12	0.00	17.51	7.290	5.07271	7.25318	2.5
8.0375	86.0112	-1.19	0.12	0.00	17.51	7.290	5.07461	7.25589	2.3
8.0575	86.0512	-1.19	0.12	0.00	17.51	7.290	5.07651	7.25861	3.1
8.0775	86.0912	-1.19	0.12	0.00	17.51	7.290	5.07841	7.26132	2.9
8.0975	86.1312	-1.19	0.12	0.00	17.51	7.290	5.08031	7.26404	3.4
8.1175	86.1712	-1.19	0.12	0.00	17.51	7.290	5.08220	7.26675	4.2
8.1375	86.2112	-1.19	0.12	0.00	17.51	7.290	5.08410	7.26946	5.6
8.1575	86.2512	-1.19	0.12	0.00	17.51	7.290	5.08600	7.27217	12.0
8.1775	86.2912	-1.19	0.12	0.00	17.51	7.290	5.08789	7.27488	58.1
8.1975	86.3312	-1.19	0.12	0.00	17.51	7.290	5.08979	7.27759	998.2
8.2175	86.3712	-1.19	0.12	0.00	17.51	7.290	5.09168	7.28030	2872.8
8.2375	86.4112	-1.19	0.12	0.00	17.51	7.290	5.09357	7.28300	460.5
8.2575	86.4512	-1.19	0.12	0.00	17.51	7.290	5.09547	7.28571	214.1
8.2775	86.4912	-1.19	0.12	0.00	17.51	7.290	5.09736	7.28842	199.7
8.2975	86.5312	-1.19	0.12	0.00	17.51	7.290	5.09925	7.29112	190.8
8.3175	86.5712	-1.19	0.12	0.00	17.51	7.290	5.10114	7.29382	186.0
8.3375	86.6112	-1.19	0.12	0.00	17.51	7.290	5.10303	7.29653	178.9
8.3575	86.6512	-1.19	0.12	0.00	17.51	7.290	5.10492	7.29923	185.6
8.3775	86.6912	-1.19	0.12	0.00	17.51	7.290	5.10681	7.30193	182.0
8.3975	86.7312	-1.19	0.12	0.00	17.51	7.290	5.10870	7.30463	180.3
8.4175	86.7712	-1.19	0.12	0.00	17.51	7.290	5.11059	7.30733	168.2
8.4375	86.8112	-1.19	0.12	0.00	17.51	7.290	5.11247	7.31003	161.8
8.4575	86.8512	-1.19	0.12	0.00	17.51	7.290	5.11436	7.31272	157.2
8.4775	86.8912	-1.19	0.12	0.00	17.51	7.290	5.11625	7.31542	149.1
8.4975	86.9312	-1.19	0.12	0.00	17.51	7.290	5.11813	7.31812	140.7
8.5175	86.9712	-1.19	0.12	0.00	17.51	7.290	5.12001	7.32081	134.5
8.5375	87.0112	-1.19	0.12	0.00	17.51	7.290	5.12190	7.32351	133.4
8.5575	87.0512	-1.19	0.12	0.00	17.51	7.290	5.12378	7.32620	131.3
8.5775	87.0912	-1.19	0.12	0.00	17.51	7.290	5.12567	7.32889	128.7
8.5975	87.1312	-1.19	0.12	0.00	17.51	7.290	5.12755	7.33158	127.7
8.6175	87.1712	-1.19	0.12	0.00	17.51	7.290	5.12943	7.33427	123.4
8.6375	87.2112	-1.19	0.12	0.00	17.51	7.290	5.13131	7.33696	115.4
8.6575	87.2512	-1.19	0.12	0.00	17.51	7.290	5.13319	7.33965	116.2
8.6775	87.2912	-1.19	0.12	0.00	17.51	7.290	5.13507	7.34234	108.9
8.6975	87.3312	-1.19	0.12	0.00	17.51	7.290	5.13695	7.34502	108.1
8.7175	87.3712	-1.19	0.12	0.00	17.51	7.290	5.13883	7.34771	105.0
8.7375	87.4112	-1.19	0.12	0.00	17.51	7.290	5.14070	7.35039	103.0
8.7575	87.4512	-1.19	0.12	0.00	17.51	7.290	5.14258	7.35308	100.9
8.7775	87.4912	-1.19	0.12	0.00	17.51	7.290	5.14446	7.35576	97.3
8.7975	87.5312	-1.19	0.12	0.00	17.51	7.290	5.14633	7.35844	92.6
8.8175	87.5712	-1.19	0.12	0.00	17.51	7.290	5.14821	7.36112	92.1
8.8375	87.6112	-1.19	0.12	0.00	17.51	7.290	5.15008	7.36380	92.7
8.8575	87.6512	-1.19	0.12	0.00	17.51	7.290	5.15196	7.36648	88.4
8.8775	87.6912	-1.19	0.12	0.00	17.51	7.290	5.15383	7.36916	87.5
8.8975	87.7312	-1.19	0.12	0.00	17.51	7.290	5.15570	7.37184	82.4
8.9175	87.7712	-1.19	0.12	0.00	17.51	7.290	5.15758	7.37452	81.6
8.9375	87.8112	-1.19	0.12	0.00	17.51	7.290	5.15945	7.37719	81.8
8.9575	87.8512	-1.19	0.12	0.00	17.51	7.290	5.16132	7.37987	73.8
8.9775	87.8912	-1.19	0.12	0.00	17.51	7.290	5.16319	7.38254	72.7
8.9975	87.9312	-1.19	0.12	0.00	17.51	7.290	5.16506	7.38521	68.4
9.0175	87.9712	-1.19	0.12	0.00	17.51	7.290	5.16693	7.38789	82.6
9.0375	88.0112	-1.19	0.12	0.00	17.51	7.290	5.16880	7.39056	715.2
9.0575	88.0512	-1.19	0.12	0.00	17.51	7.290	5.17066	7.39323	1034.9
9.0775	88.0912	-1.19	0.12	0.00	17.51	7.290	5.17253	7.39590	88.7
9.0975	88.1312	-1.19	0.12	0.00	17.51	7.290	5.17440	7.39857	10.7
9.1175	88.1712	-1.19	0.12	0.00	17.51	7.290	5.17626	7.40124	6.3
9.1375	88.2112	-1.19	0.12	0.00	17.51	7.290	5.17813	7.40390	5.1
9.1575	88.2512	-1.19	0.12	0.00	17.51	7.290	5.17999	7.40657	4.8
9.1775	88.2912	-1.19	0.12	0.00	17.51	7.290	5.18186	7.40923	4.7
9.1975	88.3312	-1.19	0.12	0.00	17.51	7.290	5.18372	7.41190	4.1
9.2175	88.3712	-1.19	0.12	0.00	17.51	7.290	5.18558	7.41456	3.7
9.2375	88.4112	-1.19	0.12	0.00	17.51	7.290	5.18744	7.41722	3.5
9.2575	88.4512	-1.19	0.12	0.00	17.51	7.290	5.18930	7.41988	2.7
9.2775	88.4912	-1.19	0.12	0.00	17.51	7.290	5.19117	7.42255	2.0
9.2975	88.5312	-1.19	0.12	0.00	17.51	7.290	5.19303	7.42521	2.3
9.3175	88.5712	-1.19	0.12	0.00	17.51	7.290	5.19488	7.42786	2.2
9.3375	88.6112	-1.19	0.12	0.00	17.51	7.290	5.19674	7.43052	1.5
9.3575	88.6512	-1.19	0.12	0.00	17.51	7.290	5.19860	7.43318	1.7
9.3775	88.6912	-1.19	0.12	0.00	17.51	7.290	5.20046	7.43583	1.2
9.3975	88.7312	-1.19	0.12	0.00	17.51	7.290	5.20232	7.43849	2.0
9.4175	88.7712	-1.19	0.12	0.00	17.51	7.290	5.20417	7.44114	1.3
9.4375	88.8112	-1.19	0.12	0.00	17.51	7.290	5.20603	7.44380	1.7
9.4575	88.8512	-1.19	0.12	0.00	17.51	7.290	5.20788	7.44645	1.5
9.4775	88.8912	-1.19	0.12	0.00	17.51	7.290	5.20974	7.44910	1.5
9.4975	88.9312	-1.19	0.12	0.00	17.51	7.290	5.21159	7.45175	1.7
9.5175	88.9712	-1.19	0.12	0.00	17.51	7.290	5.21345	7.45440	1.0
9.5375	89.0112	-1.19	0.12	0.00	17.51	7.290	5.21530	7.45705	1.6

File: 2.0deg-2.0deg-rsm-3h10mins_11352-as-grown_224_w_000-100.dat
# filename: 2.0deg-2.0deg-rsm-3h10mins_11352-as-grown_224.dat
# reflection: (004)
# type: Projection of 100 omega2theta scans
# x-axis: omega2theta
#
# Omega	2Theta	Phi  	Chi   	X    	Y    	Z    	q_para	q_perp	Intensity
# [deg]	[deg] 	[deg]	[deg] 	[mm] 	[mm] 	[mm] 	[nm-1]	[nm-1]	[counts/s]
7.1511	85.0724	1.28	0.08	-30.00	20.00	7.317	5.08208	7.15512	1.4
7.1711	85.1124	1.28	0.08	-30.00	20.00	7.317	5.08401	7.15784	1.4
7.1911	85.1524	1.28	0.08	-30.00	20.00	7.317	5.08594	7.16056	1.4
7.2111	85.1924	1.28	0.08	-30.00	20.00	7.317	5.08788	7.16328	1.2
7.2311	85.2324	1.28	0.08	-30.00	20.00	7.317	5.08981	7.16600	1.4
7.2511	85.2724	1.28	0.08	-30.00	20.00	7.317	5.09174	7.16872	1.6
7.2711	85.3124	1.28	0.08	-30.00	20.00	7.317	5.09367	7.17144	1.7
7.2911	85.3524	1.28	0.08	-30.00	20.00	7.317	5.09560	7.17415	1.5
7.3111	85.3924	1.28	0.08	-30.00	20.00	7.317	5.09753	7.17687	1.4
7.3311	85.4324	1.28	0.08	-30.00	20.00	7.317	5.09946	7.17958	1.3
7.3511	85.4724	1.28	0.08	-30.00	20.00	7.317	5.10138	7.18230	1.7
7.3711	85.5124	1.28	0.08	-30.00	20.00	7.317	5.10331	7.18501	1.6
7.3911	85.5524	1.28	0.08	-30.00	20.00	7.317	5.10524	7.18772	1.6
7.4111	85.5924	1.28	0.08	-30.00	20.00	7.317	5.10716	7.19043	2.2
7.4311	85.6324	1.28	0.08	-30.00	20.00	7.317	5.10909	7.19314	1.6
7.4511	85.6724	1.28	0.08	-30.00	20.00	7.317	5.11101	7.19585	1.6
7.4711	85.7124	1.28	0.08	-30.00	20.00	7.317	5.11294	7.19856	2.0
7.4911	85.7524	1.28	0.08	-30.00	20.00	7.317	5.11486	7.20127	1.8
7.5111	85.7924	1.28	0.08	-30.00	20.00	7.317	5.11678	7.20398	2.0
7.5311	85.8324	1.28	0.08	-30.00	20.00	7.317	5.11870	7.20668	2.2
7.5511	85.8724	1.28	0.08	-30.00	20.00	7.317	5.12062	7.20939	2.3
7.5711	85.9124	1.28	0.08	-30.00	20.00	7.317	5.12255	7.21209	2.2
7.5911	85.9524	1.28	0.08	-30.00	20.00	7.317	5.12447	7.21480	2.3
7.6111	85.9924	1.28	0.08	-30.00	20.00	7.317	5.12639	7.21750	2.4
7.6311	86.0324	1.28	0.08	-30.00	20.00	7.317	5.12830	7.22020	2.9
7.6511	86.0724	1.28	0.08	-30.00	20.00	7.317	5.13022	7.22290	2.9
7.6711	86.1124	1.28	0.08	-30.00	20.00	7.317	5.13214	7.22560	3.2
7.6911	86.1524	1.28	0.08	-30.00	20.00	7.317	5.13406	7.22830	3.8
7.7111	86.1924	1.28	0.08	-30.00	20.00	7.317	5.13597	7.23100	4.2
7.7311	86.2324	1.28	0.08	-30.00	20.00	7.317	5.13789	7.23369	5.4
7.7511	86.2724	1.28	0.08	-30.00	20.00	7.317	5.13980	7.23639	10.5
7.7711	86.3124	1.28	0.08	-30.00	20.00	7.317	5.14172	7.23909	43.7
7.7911	86.3524	1.28	0.08	-30.00	20.00	7.317	5.14363	7.24178	778.2
7.8111	86.3924	1.28	0.08	-30.00	20.00	7.317	5.14555	7.24448	2818.0
7.8311	86.4324	1.28	0.08	-30.00	20.00	7.317	5.14746	7.24717	571.0
7.8511	86.4724	1.28	0.08	-30.00	20.00	7.317	5.14937	7.24986	207.8
7.8711	86.5124	1.28	0.08	-30.00	20.00	7.317	5.15128	7.25255	181.3
7.8911	86.5524	1.28	0.08	-30.00	20.00	7.317	5.15319	7.25524	177.4
7.9111	86.5924	1.28	0.08	-30.00	20.00	7.317	5.15510	7.25793	170.5
7.9311	86.6324	1.28	0.08	-30.00	20.00	7.317	5.15701	7.26062	164.8
7.9511	86.6724	1.28	0.08	-30.00	20.00	7.317	5.15892	7.26331	164.8
7.9711	86.7124	1.28	0.08	-30.00	20.00	7.317	5.16083	7.26599	161.6
7.9911	86.7524	1.28	0.08	-30.00	20.00	7.317	5.16274	7.26868	160.9
8.0111	86.7924	1.28	0.08	-30.00	20.00	7.317	5.16464	7.27136	149.6
8.0311	86.8324	1.28	0.08	-30.00	20.00	7.317	5.16655	7.27405	144.1
8.0511	86.8724	1.28	0.08	-30.00	20.00	7.317	5.16846	7.27673	137.1
8.0711	86.9124	1.28	0.08	-30.00	20.00	7.317	5.17036	7.27941	131.8
8.0911	86.9524	1.28	0.08	-30.00	20.00	7.317	5.17227	7.28209	125.6
8.1111	86.9924	1.28	0.08	-30.00	20.00	7.317	5.17417	7.28478	118.9
8.1311	87.0324	1.28	0.08	-30.00	20.00	7.317	5.17607	7.28745	118.9
8.1511	87.0724	1.28	0.08	-30.00	20.00	7.317	5.17797	7.29013	119.5
8.1711	87.1124	1.28	0.08	-30.00	20.00	7.317	5.17988	7.29281	116.4
8.1911	87.1524	1.28	0.08	-30.00	20.00	7.317	5.18178	7.29549	113.6
8.2111	87.1924	1.28	0.08	-30.00	20.00	7.317	5.18368	7.29816	108.9
8.2311	87.2324	1.28	0.08	-30.00	20.00	7.317	5.18558	7.30084	104.5
8.2511	87.2724	1.28	0.08	-30.00	20.00	7.317	5.18748	7.30351	101.2
8.2711	87.3124	1.28	0.08	-30.00	20.00	7.317	5.18938	7.30619	99.8
8.2911	87.3524	1.28	0.08	-30.00	20.00	7.317	5.19128	7.30886	99.3
8.3111	87.3924	1.28	0.08	-30.00	20.00	7.317	5.19317	7.31153	96.9
8.3311	87.4324	1.28	0.08	-30.00	20.00	7.317	5.19507	7.31420	93.3
8.3511	87.4724	1.28	0.08	-30.00	20.00	7.317	5.19697	7.31687	87.1
8.3711	87.5124	1.28	0.08	-30.00	20.00	7.317	5.19886	7.31954	86.0
8.3911	87.5524	1.28	0.08	-30.00	20.00	7.317	5.20076	7.32221	82.8
8.4111	87.5924	1.28	0.08	-30.00	20.00	7.317	5.20265	7.32487	84.7
8.4311	87.6324	1.28	0.08	-30.00	20.00	7.317	5.20454	7.32754	82.4
8.4511	87.6724	1.28	0.08	-30.00	20.00	7.317	5.20644	7.33021	77.1
8.4711	87.7124	1.28	0.08	-30.00	20.00	7.317	5.20833	7.33287	76.2
8.4911	87.7524	1.28	0.08	-30.00	20.00	7.317	5.21022	7.33553	73.4
8.5111	87.7924	1.28	0.08	-30.00	20.00	7.317	5.21211	7.33820	73.5
8.5311	87.8324	1.28	0.08	-30.00	20.00	7.317	5.21400	7.34086	71.7
8.5511	87.8724	1.28	0.08	-30.00	20.00	7.317	5.21589	7.34352	66.6
8.5711	87.9124	1.28	0.08	-30.00	20.00	7.317	5.21778	7.34618	63.9
8.5911	87.9524	1.28	0.08	-30.00	20.00	7.317	5.21967	7.34884	61.6
8.6111	87.9924	1.28	0.08	-30.00	20.00	7.317	5.22156	7.35150	73.4
8.6311	88.0324	1.28	0.08	-30.00	20.00	7.317	5.22345	7.35415	553.7
8.6511	88.0724	1.28	0.08	-30.00	20.00	7.317	5.22533	7.35681	683.6
8.6711	88.1124	1.28	0.08	-30.00	20.00	7.317	5.22722	7.35947	89.0
8.6911	88.1524	1.28	0.08	-30.00	20.00	7.317	5.22910	7.36212	11.1
8.7111	88.1924	1.28	0.08	-30.00	20.00	7.317	5.23099	7.36477	4.6
8.7311	88.2324	1.28	0.08	-30.00	20.00	7.317	5.23287	7.36743	3.0
8.7511	88.2724	1.28	0.08	-30.00	20.00	7.317	5.23476	7.37008	2.3
8.7711	88.3124	1.28	0.08	-30.00	20.00	7.317	5.23664	7.37273	2.8
8.7911	88.3524	1.28	0.08	-30.00	20.00	7.317	5.23852	7.37538	2.4
8.8111	88.3924	1.28	0.08	-30.00	20.00	7.317	5.24040	7.37803	1.8
8.8311	88.4324	1.28	0.08	-30.00	20.00	7.317	5.24229	7.38068	1.7
8.8511	88.4724	1.28	0.08	-30.00	20.00	7.317	5.24417	7.38332	1.8
8.8711	88.5124	1.28	0.08	-30.00	20.00	7.317	5.24605	7.38597	1.9
8.8911	88.5524	1.28	0.08	-30.00	20.00	7.317	5.24792	7.38862	1.5
8.9111	88.5924	1.28	0.08	-30.00	20.00	7.317	5.24980	7.39126	1.6
8.9311	88.6324	1.28	0.08	-30.00	20.00	7.317	5.25168	7.39390	1.4
8.9511	88.6724	1.28	0.08	-30.00	20.00	7.317	5.25356	7.39655	1.5
8.9711	88.7124	1.28	0.08	-30.00	20.00	7.317	5.25543	7.39919	1.6
8.9911	88.7524	1.28	0.08	-30.00	20.00	7.317	5.25731	7.40183	1.5
9.0111	88.7924	1.28	0.08	-30.00	20.00	7.317	5.25919	7.40447	1.8
9.0311	88.8324	1.28	0.08	-30.00	20.00	7.317	5.26106	7.40711	1.4
9.0511	88.8724	1.28	0.08	-30.00	20.00	7.317	5.26293	7.40975	1.1
9.0711	88.9124	1.28	0.08	-30.00	20.00	7.317	5.26481	7.41238	1.2
9.0911	88.9524	1.28	0.08	-30.00	20.00	7.317	5.26668	7.41502	1.4
9.1111	88.9924	1.28	0.08	-30.00	20.00	7.317	5.26855	7.41766	1.4
9.1311	89.0324	1.28	0.08	-30.00	20.00	7.317	5.27042	7.42029	1.7