Folder: Thesis_XRD/Data/Omega2Theta (part 5)

File: 2.0deg-2.0deg-rsm-3h10mins_11358-annealed_224_w_000-100.dat
# filename: 2.0deg-2.0deg-rsm-3h10mins_11358-annealed_224.dat
# reflection: (004)
# type: Projection of 100 omega2theta scans
# x-axis: omega2theta
#
# Omega	2Theta	Phi  	Chi   	X    	Y    	Z    	q_para	q_perp	Intensity
# [deg]	[deg] 	[deg]	[deg] 	[mm] 	[mm] 	[mm] 	[nm-1]	[nm-1]	[counts/s]
7.1544	85.0724	-0.24	0.13	0.00	-23.01	7.396	5.08167	7.15541	1.4
7.1744	85.1124	-0.24	0.13	0.00	-23.01	7.396	5.08360	7.15813	1.3
7.1944	85.1524	-0.24	0.13	0.00	-23.01	7.396	5.08553	7.16085	1.7
7.2144	85.1924	-0.24	0.13	0.00	-23.01	7.396	5.08746	7.16358	1.2
7.2344	85.2324	-0.24	0.13	0.00	-23.01	7.396	5.08939	7.16629	1.0
7.2544	85.2724	-0.24	0.13	0.00	-23.01	7.396	5.09133	7.16901	1.4
7.2744	85.3124	-0.24	0.13	0.00	-23.01	7.396	5.09326	7.17173	1.4
7.2944	85.3524	-0.24	0.13	0.00	-23.01	7.396	5.09518	7.17445	1.3
7.3144	85.3924	-0.24	0.13	0.00	-23.01	7.396	5.09711	7.17716	1.2
7.3344	85.4324	-0.24	0.13	0.00	-23.01	7.396	5.09904	7.17988	1.2
7.3544	85.4724	-0.24	0.13	0.00	-23.01	7.396	5.10097	7.18259	1.4
7.3744	85.5124	-0.24	0.13	0.00	-23.01	7.396	5.10290	7.18530	1.5
7.3944	85.5524	-0.24	0.13	0.00	-23.01	7.396	5.10482	7.18802	1.6
7.4144	85.5924	-0.24	0.13	0.00	-23.01	7.396	5.10675	7.19073	1.4
7.4344	85.6324	-0.24	0.13	0.00	-23.01	7.396	5.10867	7.19344	1.8
7.4544	85.6724	-0.24	0.13	0.00	-23.01	7.396	5.11060	7.19615	1.7
7.4744	85.7124	-0.24	0.13	0.00	-23.01	7.396	5.11252	7.19886	1.3
7.4944	85.7524	-0.24	0.13	0.00	-23.01	7.396	5.11444	7.20156	1.7
7.5144	85.7924	-0.24	0.13	0.00	-23.01	7.396	5.11637	7.20427	1.6
7.5344	85.8324	-0.24	0.13	0.00	-23.01	7.396	5.11829	7.20698	1.8
7.5544	85.8724	-0.24	0.13	0.00	-23.01	7.396	5.12021	7.20968	1.9
7.5744	85.9124	-0.24	0.13	0.00	-23.01	7.396	5.12213	7.21239	1.8
7.5944	85.9524	-0.24	0.13	0.00	-23.01	7.396	5.12405	7.21509	2.2
7.6144	85.9924	-0.24	0.13	0.00	-23.01	7.396	5.12597	7.21779	2.5
7.6344	86.0324	-0.24	0.13	0.00	-23.01	7.396	5.12789	7.22050	2.2
7.6544	86.0724	-0.24	0.13	0.00	-23.01	7.396	5.12981	7.22320	3.3
7.6744	86.1124	-0.24	0.13	0.00	-23.01	7.396	5.13172	7.22590	3.7
7.6944	86.1524	-0.24	0.13	0.00	-23.01	7.396	5.13364	7.22860	3.8
7.7144	86.1924	-0.24	0.13	0.00	-23.01	7.396	5.13556	7.23129	4.7
7.7344	86.2324	-0.24	0.13	0.00	-23.01	7.396	5.13747	7.23399	5.9
7.7544	86.2724	-0.24	0.13	0.00	-23.01	7.396	5.13939	7.23669	12.2
7.7744	86.3124	-0.24	0.13	0.00	-23.01	7.396	5.14130	7.23938	61.6
7.7944	86.3524	-0.24	0.13	0.00	-23.01	7.396	5.14321	7.24208	886.2
7.8144	86.3924	-0.24	0.13	0.00	-23.01	7.396	5.14513	7.24477	2512.3
7.8344	86.4324	-0.24	0.13	0.00	-23.01	7.396	5.14704	7.24746	514.8
7.8544	86.4724	-0.24	0.13	0.00	-23.01	7.396	5.14895	7.25016	203.9
7.8744	86.5124	-0.24	0.13	0.00	-23.01	7.396	5.15086	7.25285	176.1
7.8944	86.5524	-0.24	0.13	0.00	-23.01	7.396	5.15277	7.25554	171.9
7.9144	86.5924	-0.24	0.13	0.00	-23.01	7.396	5.15468	7.25823	165.9
7.9344	86.6324	-0.24	0.13	0.00	-23.01	7.396	5.15659	7.26092	167.3
7.9544	86.6724	-0.24	0.13	0.00	-23.01	7.396	5.15850	7.26360	170.2
7.9744	86.7124	-0.24	0.13	0.00	-23.01	7.396	5.16041	7.26629	168.1
7.9944	86.7524	-0.24	0.13	0.00	-23.01	7.396	5.16232	7.26898	164.3
8.0144	86.7924	-0.24	0.13	0.00	-23.01	7.396	5.16423	7.27166	158.1
8.0344	86.8324	-0.24	0.13	0.00	-23.01	7.396	5.16613	7.27435	145.9
8.0544	86.8724	-0.24	0.13	0.00	-23.01	7.396	5.16804	7.27703	143.7
8.0744	86.9124	-0.24	0.13	0.00	-23.01	7.396	5.16994	7.27971	137.0
8.0944	86.9524	-0.24	0.13	0.00	-23.01	7.396	5.17185	7.28239	129.7
8.1144	86.9924	-0.24	0.13	0.00	-23.01	7.396	5.17375	7.28507	127.9
8.1344	87.0324	-0.24	0.13	0.00	-23.01	7.396	5.17565	7.28775	123.9
8.1544	87.0724	-0.24	0.13	0.00	-23.01	7.396	5.17755	7.29043	120.7
8.1744	87.1124	-0.24	0.13	0.00	-23.01	7.396	5.17946	7.29311	119.0
8.1944	87.1524	-0.24	0.13	0.00	-23.01	7.396	5.18136	7.29579	116.6
8.2144	87.1924	-0.24	0.13	0.00	-23.01	7.396	5.18326	7.29846	114.5
8.2344	87.2324	-0.24	0.13	0.00	-23.01	7.396	5.18516	7.30114	107.6
8.2544	87.2724	-0.24	0.13	0.00	-23.01	7.396	5.18706	7.30381	104.1
8.2744	87.3124	-0.24	0.13	0.00	-23.01	7.396	5.18896	7.30648	100.3
8.2944	87.3524	-0.24	0.13	0.00	-23.01	7.396	5.19085	7.30916	101.6
8.3144	87.3924	-0.24	0.13	0.00	-23.01	7.396	5.19275	7.31183	100.5
8.3344	87.4324	-0.24	0.13	0.00	-23.01	7.396	5.19465	7.31450	96.4
8.3544	87.4724	-0.24	0.13	0.00	-23.01	7.396	5.19654	7.31717	94.0
8.3744	87.5124	-0.24	0.13	0.00	-23.01	7.396	5.19844	7.31984	88.1
8.3944	87.5524	-0.24	0.13	0.00	-23.01	7.396	5.20033	7.32251	89.2
8.4144	87.5924	-0.24	0.13	0.00	-23.01	7.396	5.20223	7.32517	88.0
8.4344	87.6324	-0.24	0.13	0.00	-23.01	7.396	5.20412	7.32784	85.9
8.4544	87.6724	-0.24	0.13	0.00	-23.01	7.396	5.20602	7.33050	81.6
8.4744	87.7124	-0.24	0.13	0.00	-23.01	7.396	5.20791	7.33317	79.0
8.4944	87.7524	-0.24	0.13	0.00	-23.01	7.396	5.20980	7.33583	78.5
8.5144	87.7924	-0.24	0.13	0.00	-23.01	7.396	5.21169	7.33850	78.3
8.5344	87.8324	-0.24	0.13	0.00	-23.01	7.396	5.21358	7.34116	73.2
8.5544	87.8724	-0.24	0.13	0.00	-23.01	7.396	5.21547	7.34382	66.5
8.5744	87.9124	-0.24	0.13	0.00	-23.01	7.396	5.21736	7.34648	67.5
8.5944	87.9524	-0.24	0.13	0.00	-23.01	7.396	5.21925	7.34914	63.5
8.6144	87.9924	-0.24	0.13	0.00	-23.01	7.396	5.22114	7.35180	81.1
8.6344	88.0324	-0.24	0.13	0.00	-23.01	7.396	5.22302	7.35445	964.3
8.6544	88.0724	-0.24	0.13	0.00	-23.01	7.396	5.22491	7.35711	1031.5
8.6744	88.1124	-0.24	0.13	0.00	-23.01	7.396	5.22680	7.35977	136.4
8.6944	88.1524	-0.24	0.13	0.00	-23.01	7.396	5.22868	7.36242	13.4
8.7144	88.1924	-0.24	0.13	0.00	-23.01	7.396	5.23057	7.36507	5.9
8.7344	88.2324	-0.24	0.13	0.00	-23.01	7.396	5.23245	7.36773	3.1
8.7544	88.2724	-0.24	0.13	0.00	-23.01	7.396	5.23433	7.37038	2.7
8.7744	88.3124	-0.24	0.13	0.00	-23.01	7.396	5.23622	7.37303	2.0
8.7944	88.3524	-0.24	0.13	0.00	-23.01	7.396	5.23810	7.37568	2.1
8.8144	88.3924	-0.24	0.13	0.00	-23.01	7.396	5.23998	7.37833	2.6
8.8344	88.4324	-0.24	0.13	0.00	-23.01	7.396	5.24186	7.38098	1.7
8.8544	88.4724	-0.24	0.13	0.00	-23.01	7.396	5.24374	7.38363	1.7
8.8744	88.5124	-0.24	0.13	0.00	-23.01	7.396	5.24562	7.38627	2.2
8.8944	88.5524	-0.24	0.13	0.00	-23.01	7.396	5.24750	7.38892	1.6
8.9144	88.5924	-0.24	0.13	0.00	-23.01	7.396	5.24938	7.39156	1.6
8.9344	88.6324	-0.24	0.13	0.00	-23.01	7.396	5.25125	7.39421	1.7
8.9544	88.6724	-0.24	0.13	0.00	-23.01	7.396	5.25313	7.39685	1.8
8.9744	88.7124	-0.24	0.13	0.00	-23.01	7.396	5.25501	7.39949	1.9
8.9944	88.7524	-0.24	0.13	0.00	-23.01	7.396	5.25688	7.40213	1.2
9.0144	88.7924	-0.24	0.13	0.00	-23.01	7.396	5.25876	7.40477	1.5
9.0344	88.8324	-0.24	0.13	0.00	-23.01	7.396	5.26063	7.40741	1.4
9.0544	88.8724	-0.24	0.13	0.00	-23.01	7.396	5.26251	7.41005	1.3
9.0744	88.9124	-0.24	0.13	0.00	-23.01	7.396	5.26438	7.41269	1.3
9.0944	88.9524	-0.24	0.13	0.00	-23.01	7.396	5.26625	7.41532	1.7
9.1144	88.9924	-0.24	0.13	0.00	-23.01	7.396	5.26813	7.41796	1.5
9.1344	89.0324	-0.24	0.13	0.00	-23.01	7.396	5.27000	7.42060	1.3

File: 2.0deg-2.0deg-rsm-3h10mins_11371-as-grown_224_w_000-100.dat
# filename: 2.0deg-2.0deg-rsm-3h10mins_11371-as-grown_224.dat
# reflection: (004)
# type: Projection of 100 omega2theta scans
# x-axis: omega2theta
#
# Omega	2Theta	Phi  	Chi   	X    	Y    	Z    	q_para	q_perp	Intensity
# [deg]	[deg] 	[deg]	[deg] 	[mm] 	[mm] 	[mm] 	[nm-1]	[nm-1]	[counts/s]
7.3979	85.0636	0.79	0.07	5.00	5.00	7.412	5.05024	7.17673	1.2
7.4179	85.1036	0.79	0.07	5.00	5.00	7.412	5.05216	7.17946	1.6
7.4379	85.1436	0.79	0.07	5.00	5.00	7.412	5.05408	7.18219	1.6
7.4579	85.1836	0.79	0.07	5.00	5.00	7.412	5.05600	7.18492	1.9
7.4779	85.2236	0.79	0.07	5.00	5.00	7.412	5.05792	7.18765	1.9
7.4979	85.2636	0.79	0.07	5.00	5.00	7.412	5.05984	7.19037	2.0
7.5179	85.3036	0.79	0.07	5.00	5.00	7.412	5.06176	7.19310	1.8
7.5379	85.3436	0.79	0.07	5.00	5.00	7.412	5.06367	7.19582	1.8
7.5579	85.3836	0.79	0.07	5.00	5.00	7.412	5.06559	7.19855	1.6
7.5779	85.4236	0.79	0.07	5.00	5.00	7.412	5.06751	7.20127	2.0
7.5979	85.4636	0.79	0.07	5.00	5.00	7.412	5.06942	7.20400	1.9
7.6179	85.5036	0.79	0.07	5.00	5.00	7.412	5.07134	7.20672	1.8
7.6379	85.5436	0.79	0.07	5.00	5.00	7.412	5.07325	7.20944	1.8
7.6579	85.5836	0.79	0.07	5.00	5.00	7.412	5.07517	7.21216	1.9
7.6779	85.6236	0.79	0.07	5.00	5.00	7.412	5.07708	7.21488	2.2
7.6979	85.6636	0.79	0.07	5.00	5.00	7.412	5.07899	7.21759	2.4
7.7179	85.7036	0.79	0.07	5.00	5.00	7.412	5.08091	7.22031	2.3
7.7379	85.7436	0.79	0.07	5.00	5.00	7.412	5.08282	7.22303	2.6
7.7579	85.7836	0.79	0.07	5.00	5.00	7.412	5.08473	7.22574	2.6
7.7779	85.8236	0.79	0.07	5.00	5.00	7.412	5.08664	7.22846	2.4
7.7979	85.8636	0.79	0.07	5.00	5.00	7.412	5.08855	7.23117	2.7
7.8179	85.9036	0.79	0.07	5.00	5.00	7.412	5.09046	7.23389	2.9
7.8379	85.9436	0.79	0.07	5.00	5.00	7.412	5.09237	7.23660	2.8
7.8579	85.9836	0.79	0.07	5.00	5.00	7.412	5.09427	7.23931	3.3
7.8779	86.0236	0.79	0.07	5.00	5.00	7.412	5.09618	7.24202	3.4
7.8979	86.0636	0.79	0.07	5.00	5.00	7.412	5.09809	7.24473	4.0
7.9179	86.1036	0.79	0.07	5.00	5.00	7.412	5.09999	7.24744	4.5
7.9379	86.1436	0.79	0.07	5.00	5.00	7.412	5.10190	7.25014	6.0
7.9579	86.1836	0.79	0.07	5.00	5.00	7.412	5.10380	7.25285	7.5
7.9779	86.2236	0.79	0.07	5.00	5.00	7.412	5.10571	7.25556	13.2
7.9979	86.2636	0.79	0.07	5.00	5.00	7.412	5.10761	7.25826	49.6
8.0179	86.3036	0.79	0.07	5.00	5.00	7.412	5.10951	7.26097	450.5
8.0379	86.3436	0.79	0.07	5.00	5.00	7.412	5.11141	7.26367	3174.5
8.0579	86.3836	0.79	0.07	5.00	5.00	7.412	5.11332	7.26637	1721.2
8.0779	86.4236	0.79	0.07	5.00	5.00	7.412	5.11522	7.26907	381.6
8.0979	86.4636	0.79	0.07	5.00	5.00	7.412	5.11712	7.27177	237.6
8.1179	86.5036	0.79	0.07	5.00	5.00	7.412	5.11902	7.27447	228.3
8.1379	86.5436	0.79	0.07	5.00	5.00	7.412	5.12092	7.27717	221.5
8.1579	86.5836	0.79	0.07	5.00	5.00	7.412	5.12281	7.27987	223.1
8.1779	86.6236	0.79	0.07	5.00	5.00	7.412	5.12471	7.28257	223.5
8.1979	86.6636	0.79	0.07	5.00	5.00	7.412	5.12661	7.28526	227.8
8.2179	86.7036	0.79	0.07	5.00	5.00	7.412	5.12851	7.28796	225.5
8.2379	86.7436	0.79	0.07	5.00	5.00	7.412	5.13040	7.29065	216.8
8.2579	86.7836	0.79	0.07	5.00	5.00	7.412	5.13230	7.29334	211.7
8.2779	86.8236	0.79	0.07	5.00	5.00	7.412	5.13419	7.29604	203.9
8.2979	86.8636	0.79	0.07	5.00	5.00	7.412	5.13609	7.29873	190.7
8.3179	86.9036	0.79	0.07	5.00	5.00	7.412	5.13798	7.30142	181.5
8.3379	86.9436	0.79	0.07	5.00	5.00	7.412	5.13987	7.30411	176.1
8.3579	86.9836	0.79	0.07	5.00	5.00	7.412	5.14177	7.30680	168.6
8.3779	87.0236	0.79	0.07	5.00	5.00	7.412	5.14366	7.30949	166.7
8.3979	87.0636	0.79	0.07	5.00	5.00	7.412	5.14555	7.31217	164.4
8.4179	87.1036	0.79	0.07	5.00	5.00	7.412	5.14744	7.31486	161.9
8.4379	87.1436	0.79	0.07	5.00	5.00	7.412	5.14933	7.31754	155.1
8.4579	87.1836	0.79	0.07	5.00	5.00	7.412	5.15122	7.32023	146.7
8.4779	87.2236	0.79	0.07	5.00	5.00	7.412	5.15311	7.32291	137.2
8.4979	87.2636	0.79	0.07	5.00	5.00	7.412	5.15499	7.32560	136.4
8.5179	87.3036	0.79	0.07	5.00	5.00	7.412	5.15688	7.32828	133.0
8.5379	87.3436	0.79	0.07	5.00	5.00	7.412	5.15877	7.33096	128.4
8.5579	87.3836	0.79	0.07	5.00	5.00	7.412	5.16065	7.33364	128.2
8.5779	87.4236	0.79	0.07	5.00	5.00	7.412	5.16254	7.33632	122.0
8.5979	87.4636	0.79	0.07	5.00	5.00	7.412	5.16442	7.33900	117.3
8.6179	87.5036	0.79	0.07	5.00	5.00	7.412	5.16631	7.34167	116.3
8.6379	87.5436	0.79	0.07	5.00	5.00	7.412	5.16819	7.34435	109.6
8.6579	87.5836	0.79	0.07	5.00	5.00	7.412	5.17007	7.34703	111.7
8.6779	87.6236	0.79	0.07	5.00	5.00	7.412	5.17195	7.34970	109.0
8.6979	87.6636	0.79	0.07	5.00	5.00	7.412	5.17384	7.35237	102.3
8.7179	87.7036	0.79	0.07	5.00	5.00	7.412	5.17572	7.35505	97.5
8.7379	87.7436	0.79	0.07	5.00	5.00	7.412	5.17760	7.35772	98.5
8.7579	87.7836	0.79	0.07	5.00	5.00	7.412	5.17948	7.36039	98.4
8.7779	87.8236	0.79	0.07	5.00	5.00	7.412	5.18136	7.36306	92.7
8.7979	87.8636	0.79	0.07	5.00	5.00	7.412	5.18323	7.36573	92.4
8.8179	87.9036	0.79	0.07	5.00	5.00	7.412	5.18511	7.36840	86.8
8.8379	87.9436	0.79	0.07	5.00	5.00	7.412	5.18699	7.37106	84.5
8.8579	87.9836	0.79	0.07	5.00	5.00	7.412	5.18887	7.37373	92.1
8.8779	88.0236	0.79	0.07	5.00	5.00	7.412	5.19074	7.37640	826.8
8.8979	88.0636	0.79	0.07	5.00	5.00	7.412	5.19262	7.37906	1156.3
8.9179	88.1036	0.79	0.07	5.00	5.00	7.412	5.19449	7.38173	105.5
8.9379	88.1436	0.79	0.07	5.00	5.00	7.412	5.19637	7.38439	10.9
8.9579	88.1836	0.79	0.07	5.00	5.00	7.412	5.19824	7.38705	5.4
8.9779	88.2236	0.79	0.07	5.00	5.00	7.412	5.20011	7.38971	4.2
8.9979	88.2636	0.79	0.07	5.00	5.00	7.412	5.20198	7.39237	3.3
9.0179	88.3036	0.79	0.07	5.00	5.00	7.412	5.20385	7.39503	2.7
9.0379	88.3436	0.79	0.07	5.00	5.00	7.412	5.20573	7.39769	2.6
9.0579	88.3836	0.79	0.07	5.00	5.00	7.412	5.20760	7.40035	2.0
9.0779	88.4236	0.79	0.07	5.00	5.00	7.412	5.20946	7.40300	2.4
9.0979	88.4636	0.79	0.07	5.00	5.00	7.412	5.21133	7.40566	2.1
9.1179	88.5036	0.79	0.07	5.00	5.00	7.412	5.21320	7.40831	2.3
9.1379	88.5436	0.79	0.07	5.00	5.00	7.412	5.21507	7.41097	2.0
9.1579	88.5836	0.79	0.07	5.00	5.00	7.412	5.21694	7.41362	2.0
9.1779	88.6236	0.79	0.07	5.00	5.00	7.412	5.21880	7.41627	1.9
9.1979	88.6636	0.79	0.07	5.00	5.00	7.412	5.22067	7.41893	1.6
9.2179	88.7036	0.79	0.07	5.00	5.00	7.412	5.22253	7.42158	2.0
9.2379	88.7436	0.79	0.07	5.00	5.00	7.412	5.22440	7.42423	1.7
9.2579	88.7836	0.79	0.07	5.00	5.00	7.412	5.22626	7.42687	1.5
9.2779	88.8236	0.79	0.07	5.00	5.00	7.412	5.22813	7.42952	1.5
9.2979	88.8636	0.79	0.07	5.00	5.00	7.412	5.22999	7.43217	1.9
9.3179	88.9036	0.79	0.07	5.00	5.00	7.412	5.23185	7.43481	1.6
9.3379	88.9436	0.79	0.07	5.00	5.00	7.412	5.23371	7.43746	1.6
9.3579	88.9836	0.79	0.07	5.00	5.00	7.412	5.23557	7.44010	1.9
9.3779	89.0236	0.79	0.07	5.00	5.00	7.412	5.23743	7.44275	1.1