Folder: Thesis_XRD/Data/Projection_SiGePeak (part 6)

File: 2.0deg-2.0deg-rsm-3h10mins_11355-as-grown_224_w-scans_w_066-066.dat
# filename: 2.0deg-2.0deg-rsm-3h10mins_11355-as-grown_224_w-scans.dat
# reflection: (004)
# type: Projection of 0 omega (rotated)  scans
# x-axis: omega
#
# Omega	2Theta	Phi  	Chi   	X    	Y    	Z    	q_para	q_perp	Intensity
# [deg]	[deg] 	[deg]	[deg] 	[mm] 	[mm] 	[mm] 	[nm-1]	[nm-1]	[counts/s]
6.7678	86.3926	0.46	0.10	-30.00	-20.00	7.373	5.27690	7.14996	4.0
6.7878	86.3926	0.46	0.10	-30.00	-20.00	7.373	5.27440	7.15180	2.0
6.8078	86.3926	0.46	0.10	-30.00	-20.00	7.373	5.27190	7.15364	2.0
6.8278	86.3926	0.46	0.10	-30.00	-20.00	7.373	5.26941	7.15548	0.0
6.8478	86.3926	0.46	0.10	-30.00	-20.00	7.373	5.26691	7.15732	0.0
6.8678	86.3926	0.46	0.10	-30.00	-20.00	7.373	5.26441	7.15916	0.0
6.8878	86.3926	0.46	0.10	-30.00	-20.00	7.373	5.26191	7.16099	2.0
6.9078	86.3926	0.46	0.10	-30.00	-20.00	7.373	5.25941	7.16283	0.0
6.9278	86.3926	0.46	0.10	-30.00	-20.00	7.373	5.25691	7.16467	0.0
6.9478	86.3926	0.46	0.10	-30.00	-20.00	7.373	5.25441	7.16650	2.0
6.9678	86.3926	0.46	0.10	-30.00	-20.00	7.373	5.25191	7.16833	2.0
6.9878	86.3926	0.46	0.10	-30.00	-20.00	7.373	5.24940	7.17017	0.0
7.0078	86.3926	0.46	0.10	-30.00	-20.00	7.373	5.24690	7.17200	0.0
7.0278	86.3926	0.46	0.10	-30.00	-20.00	7.373	5.24440	7.17383	0.0
7.0478	86.3926	0.46	0.10	-30.00	-20.00	7.373	5.24189	7.17566	0.0
7.0678	86.3926	0.46	0.10	-30.00	-20.00	7.373	5.23939	7.17749	2.0
7.0878	86.3926	0.46	0.10	-30.00	-20.00	7.373	5.23688	7.17932	4.0
7.1078	86.3926	0.46	0.10	-30.00	-20.00	7.373	5.23437	7.18115	0.0
7.1278	86.3926	0.46	0.10	-30.00	-20.00	7.373	5.23187	7.18297	4.0
7.1478	86.3926	0.46	0.10	-30.00	-20.00	7.373	5.22936	7.18480	2.0
7.1678	86.3926	0.46	0.10	-30.00	-20.00	7.373	5.22685	7.18662	0.0
7.1878	86.3926	0.46	0.10	-30.00	-20.00	7.373	5.22434	7.18845	2.0
7.2078	86.3926	0.46	0.10	-30.00	-20.00	7.373	5.22183	7.19027	0.0
7.2278	86.3926	0.46	0.10	-30.00	-20.00	7.373	5.21932	7.19209	2.0
7.2478	86.3926	0.46	0.10	-30.00	-20.00	7.373	5.21681	7.19391	2.0
7.2678	86.3926	0.46	0.10	-30.00	-20.00	7.373	5.21430	7.19574	2.0
7.2878	86.3926	0.46	0.10	-30.00	-20.00	7.373	5.21179	7.19755	2.0
7.3078	86.3926	0.46	0.10	-30.00	-20.00	7.373	5.20928	7.19937	6.0
7.3278	86.3926	0.46	0.10	-30.00	-20.00	7.373	5.20676	7.20119	4.0
7.3478	86.3926	0.46	0.10	-30.00	-20.00	7.373	5.20425	7.20301	2.0
7.3678	86.3926	0.46	0.10	-30.00	-20.00	7.373	5.20173	7.20482	18.0
7.3878	86.3926	0.46	0.10	-30.00	-20.00	7.373	5.19922	7.20664	6.0
7.4078	86.3926	0.46	0.10	-30.00	-20.00	7.373	5.19670	7.20845	26.0
7.4278	86.3926	0.46	0.10	-30.00	-20.00	7.373	5.19419	7.21027	44.0
7.4478	86.3926	0.46	0.10	-30.00	-20.00	7.373	5.19167	7.21208	88.0
7.4678	86.3926	0.46	0.10	-30.00	-20.00	7.373	5.18915	7.21389	180.0
7.4878	86.3926	0.46	0.10	-30.00	-20.00	7.373	5.18663	7.21570	378.0
7.5078	86.3926	0.46	0.10	-30.00	-20.00	7.373	5.18411	7.21751	730.0
7.5278	86.3926	0.46	0.10	-30.00	-20.00	7.373	5.18159	7.21932	1140.0
7.5478	86.3926	0.46	0.10	-30.00	-20.00	7.373	5.17907	7.22113	2032.0
7.5678	86.3926	0.46	0.10	-30.00	-20.00	7.373	5.17655	7.22294	3188.0
7.5878	86.3926	0.46	0.10	-30.00	-20.00	7.373	5.17403	7.22474	4730.0
7.6078	86.3926	0.46	0.10	-30.00	-20.00	7.373	5.17151	7.22655	7094.0
7.6278	86.3926	0.46	0.10	-30.00	-20.00	7.373	5.16899	7.22836	9706.0
7.6478	86.3926	0.46	0.10	-30.00	-20.00	7.373	5.16646	7.23016	12682.0
7.6678	86.3926	0.46	0.10	-30.00	-20.00	7.373	5.16394	7.23196	15830.0
7.6878	86.3926	0.46	0.10	-30.00	-20.00	7.373	5.16141	7.23376	18252.0
7.7078	86.3926	0.46	0.10	-30.00	-20.00	7.373	5.15889	7.23557	21016.0
7.7278	86.3926	0.46	0.10	-30.00	-20.00	7.373	5.15636	7.23737	22850.0
7.7478	86.3926	0.46	0.10	-30.00	-20.00	7.373	5.15384	7.23917	23914.0
7.7678	86.3926	0.46	0.10	-30.00	-20.00	7.373	5.15131	7.24096	24044.0
7.7878	86.3926	0.46	0.10	-30.00	-20.00	7.373	5.14878	7.24276	22908.0
7.8078	86.3926	0.46	0.10	-30.00	-20.00	7.373	5.14625	7.24456	21134.0
7.8278	86.3926	0.46	0.10	-30.00	-20.00	7.373	5.14372	7.24635	18250.0
7.8478	86.3926	0.46	0.10	-30.00	-20.00	7.373	5.14119	7.24815	15564.0
7.8678	86.3926	0.46	0.10	-30.00	-20.00	7.373	5.13866	7.24994	12806.0
7.8878	86.3926	0.46	0.10	-30.00	-20.00	7.373	5.13613	7.25174	9848.0
7.9078	86.3926	0.46	0.10	-30.00	-20.00	7.373	5.13360	7.25353	7046.0
7.9278	86.3926	0.46	0.10	-30.00	-20.00	7.373	5.13107	7.25532	5200.0
7.9478	86.3926	0.46	0.10	-30.00	-20.00	7.373	5.12853	7.25711	3796.0
7.9678	86.3926	0.46	0.10	-30.00	-20.00	7.373	5.12600	7.25890	2694.0
7.9878	86.3926	0.46	0.10	-30.00	-20.00	7.373	5.12347	7.26069	1754.0
8.0078	86.3926	0.46	0.10	-30.00	-20.00	7.373	5.12093	7.26248	1220.0
8.0278	86.3926	0.46	0.10	-30.00	-20.00	7.373	5.11840	7.26427	744.0
8.0478	86.3926	0.46	0.10	-30.00	-20.00	7.373	5.11586	7.26605	466.0
8.0678	86.3926	0.46	0.10	-30.00	-20.00	7.373	5.11332	7.26784	250.0
8.0878	86.3926	0.46	0.10	-30.00	-20.00	7.373	5.11079	7.26962	138.0
8.1078	86.3926	0.46	0.10	-30.00	-20.00	7.373	5.10825	7.27140	66.0
8.1278	86.3926	0.46	0.10	-30.00	-20.00	7.373	5.10571	7.27319	22.0
8.1478	86.3926	0.46	0.10	-30.00	-20.00	7.373	5.10317	7.27497	14.0
8.1678	86.3926	0.46	0.10	-30.00	-20.00	7.373	5.10063	7.27675	0.0
8.1878	86.3926	0.46	0.10	-30.00	-20.00	7.373	5.09809	7.27853	4.0
8.2078	86.3926	0.46	0.10	-30.00	-20.00	7.373	5.09555	7.28031	2.0
8.2278	86.3926	0.46	0.10	-30.00	-20.00	7.373	5.09301	7.28209	2.0
8.2478	86.3926	0.46	0.10	-30.00	-20.00	7.373	5.09047	7.28386	2.0
8.2678	86.3926	0.46	0.10	-30.00	-20.00	7.373	5.08792	7.28564	2.0
8.2878	86.3926	0.46	0.10	-30.00	-20.00	7.373	5.08538	7.28742	4.0
8.3078	86.3926	0.46	0.10	-30.00	-20.00	7.373	5.08284	7.28919	2.0
8.3278	86.3926	0.46	0.10	-30.00	-20.00	7.373	5.08029	7.29097	4.0
8.3478	86.3926	0.46	0.10	-30.00	-20.00	7.373	5.07775	7.29274	2.0
8.3678	86.3926	0.46	0.10	-30.00	-20.00	7.373	5.07520	7.29451	0.0
8.3878	86.3926	0.46	0.10	-30.00	-20.00	7.373	5.07265	7.29628	0.0
8.4078	86.3926	0.46	0.10	-30.00	-20.00	7.373	5.07011	7.29805	0.0
8.4278	86.3926	0.46	0.10	-30.00	-20.00	7.373	5.06756	7.29982	0.0
8.4478	86.3926	0.46	0.10	-30.00	-20.00	7.373	5.06501	7.30159	2.0
8.4678	86.3926	0.46	0.10	-30.00	-20.00	7.373	5.06246	7.30336	2.0
8.4878	86.3926	0.46	0.10	-30.00	-20.00	7.373	5.05991	7.30512	0.0
8.5078	86.3926	0.46	0.10	-30.00	-20.00	7.373	5.05736	7.30689	0.0
8.5278	86.3926	0.46	0.10	-30.00	-20.00	7.373	5.05481	7.30865	2.0
8.5478	86.3926	0.46	0.10	-30.00	-20.00	7.373	5.05226	7.31042	4.0
8.5678	86.3926	0.46	0.10	-30.00	-20.00	7.373	5.04971	7.31218	6.0
8.5878	86.3926	0.46	0.10	-30.00	-20.00	7.373	5.04715	7.31394	0.0
8.6078	86.3926	0.46	0.10	-30.00	-20.00	7.373	5.04460	7.31571	2.0
8.6278	86.3926	0.46	0.10	-30.00	-20.00	7.373	5.04205	7.31747	0.0
8.6478	86.3926	0.46	0.10	-30.00	-20.00	7.373	5.03949	7.31923	2.0
8.6678	86.3926	0.46	0.10	-30.00	-20.00	7.373	5.03694	7.32098	2.0
8.6878	86.3926	0.46	0.10	-30.00	-20.00	7.373	5.03438	7.32274	0.0
8.7078	86.3926	0.46	0.10	-30.00	-20.00	7.373	5.03182	7.32450	0.0
8.7278	86.3926	0.46	0.10	-30.00	-20.00	7.373	5.02927	7.32625	0.0
8.7478	86.3926	0.46	0.10	-30.00	-20.00	7.373	5.02671	7.32801	0.0
8.7678	86.3926	0.46	0.10	-30.00	-20.00	7.373	5.02415	7.32976	2.0

File: 2.0deg-2.0deg-rsm-3h10mins_11358-annealed_224_w-scans_w_065-065.dat
# filename: 2.0deg-2.0deg-rsm-3h10mins_11358-annealed_224_w-scans.dat
# reflection: (004)
# type: Projection of 0 omega (rotated)  scans
# x-axis: omega
#
# Omega	2Theta	Phi  	Chi   	X    	Y    	Z    	q_para	q_perp	Intensity
# [deg]	[deg] 	[deg]	[deg] 	[mm] 	[mm] 	[mm] 	[nm-1]	[nm-1]	[counts/s]
6.8044	86.3724	-0.24	0.13	0.00	-23.01	7.396	5.27008	7.15291	2.0
6.8244	86.3724	-0.24	0.13	0.00	-23.01	7.396	5.26758	7.15475	0.0
6.8444	86.3724	-0.24	0.13	0.00	-23.01	7.396	5.26508	7.15659	0.0
6.8644	86.3724	-0.24	0.13	0.00	-23.01	7.396	5.26258	7.15843	2.0
6.8844	86.3724	-0.24	0.13	0.00	-23.01	7.396	5.26008	7.16027	2.0
6.9044	86.3724	-0.24	0.13	0.00	-23.01	7.396	5.25758	7.16210	2.0
6.9244	86.3724	-0.24	0.13	0.00	-23.01	7.396	5.25508	7.16394	0.0
6.9444	86.3724	-0.24	0.13	0.00	-23.01	7.396	5.25258	7.16577	6.0
6.9644	86.3724	-0.24	0.13	0.00	-23.01	7.396	5.25008	7.16760	0.0
6.9844	86.3724	-0.24	0.13	0.00	-23.01	7.396	5.24758	7.16943	0.0
7.0044	86.3724	-0.24	0.13	0.00	-23.01	7.396	5.24508	7.17127	0.0
7.0244	86.3724	-0.24	0.13	0.00	-23.01	7.396	5.24257	7.17310	4.0
7.0444	86.3724	-0.24	0.13	0.00	-23.01	7.396	5.24007	7.17493	2.0
7.0644	86.3724	-0.24	0.13	0.00	-23.01	7.396	5.23756	7.17675	2.0
7.0844	86.3724	-0.24	0.13	0.00	-23.01	7.396	5.23506	7.17858	4.0
7.1044	86.3724	-0.24	0.13	0.00	-23.01	7.396	5.23255	7.18041	0.0
7.1244	86.3724	-0.24	0.13	0.00	-23.01	7.396	5.23005	7.18224	2.0
7.1444	86.3724	-0.24	0.13	0.00	-23.01	7.396	5.22754	7.18406	2.0
7.1644	86.3724	-0.24	0.13	0.00	-23.01	7.396	5.22503	7.18589	0.0
7.1844	86.3724	-0.24	0.13	0.00	-23.01	7.396	5.22252	7.18771	4.0
7.2044	86.3724	-0.24	0.13	0.00	-23.01	7.396	5.22001	7.18953	4.0
7.2244	86.3724	-0.24	0.13	0.00	-23.01	7.396	5.21750	7.19135	0.0
7.2444	86.3724	-0.24	0.13	0.00	-23.01	7.396	5.21499	7.19317	4.0
7.2644	86.3724	-0.24	0.13	0.00	-23.01	7.396	5.21248	7.19499	8.0
7.2844	86.3724	-0.24	0.13	0.00	-23.01	7.396	5.20997	7.19681	18.0
7.3044	86.3724	-0.24	0.13	0.00	-23.01	7.396	5.20746	7.19863	12.0
7.3244	86.3724	-0.24	0.13	0.00	-23.01	7.396	5.20494	7.20045	50.0
7.3444	86.3724	-0.24	0.13	0.00	-23.01	7.396	5.20243	7.20226	46.0
7.3644	86.3724	-0.24	0.13	0.00	-23.01	7.396	5.19991	7.20408	134.0
7.3844	86.3724	-0.24	0.13	0.00	-23.01	7.396	5.19740	7.20589	208.0
7.4044	86.3724	-0.24	0.13	0.00	-23.01	7.396	5.19488	7.20771	370.0
7.4244	86.3724	-0.24	0.13	0.00	-23.01	7.396	5.19237	7.20952	538.0
7.4444	86.3724	-0.24	0.13	0.00	-23.01	7.396	5.18985	7.21133	822.0
7.4644	86.3724	-0.24	0.13	0.00	-23.01	7.396	5.18733	7.21314	1302.0
7.4844	86.3724	-0.24	0.13	0.00	-23.01	7.396	5.18481	7.21496	1876.0
7.5044	86.3724	-0.24	0.13	0.00	-23.01	7.396	5.18230	7.21676	2762.0
7.5244	86.3724	-0.24	0.13	0.00	-23.01	7.396	5.17978	7.21857	3754.0
7.5444	86.3724	-0.24	0.13	0.00	-23.01	7.396	5.17726	7.22038	5326.0
7.5644	86.3724	-0.24	0.13	0.00	-23.01	7.396	5.17474	7.22219	6786.0
7.5844	86.3724	-0.24	0.13	0.00	-23.01	7.396	5.17221	7.22399	8662.0
7.6044	86.3724	-0.24	0.13	0.00	-23.01	7.396	5.16969	7.22580	10376.0
7.6244	86.3724	-0.24	0.13	0.00	-23.01	7.396	5.16717	7.22760	12364.0
7.6444	86.3724	-0.24	0.13	0.00	-23.01	7.396	5.16465	7.22941	13784.0
7.6644	86.3724	-0.24	0.13	0.00	-23.01	7.396	5.16212	7.23121	15204.0
7.6844	86.3724	-0.24	0.13	0.00	-23.01	7.396	5.15960	7.23301	16296.0
7.7044	86.3724	-0.24	0.13	0.00	-23.01	7.396	5.15707	7.23481	16636.0
7.7244	86.3724	-0.24	0.13	0.00	-23.01	7.396	5.15455	7.23661	16534.0
7.7444	86.3724	-0.24	0.13	0.00	-23.01	7.396	5.15202	7.23841	15768.0
7.7644	86.3724	-0.24	0.13	0.00	-23.01	7.396	5.14949	7.24021	15444.0
7.7844	86.3724	-0.24	0.13	0.00	-23.01	7.396	5.14697	7.24200	14134.0
7.8044	86.3724	-0.24	0.13	0.00	-23.01	7.396	5.14444	7.24380	13256.0
7.8244	86.3724	-0.24	0.13	0.00	-23.01	7.396	5.14191	7.24560	11952.0
7.8444	86.3724	-0.24	0.13	0.00	-23.01	7.396	5.13938	7.24739	10184.0
7.8644	86.3724	-0.24	0.13	0.00	-23.01	7.396	5.13685	7.24918	8474.0
7.8844	86.3724	-0.24	0.13	0.00	-23.01	7.396	5.13432	7.25098	7164.0
7.9044	86.3724	-0.24	0.13	0.00	-23.01	7.396	5.13179	7.25277	5798.0
7.9244	86.3724	-0.24	0.13	0.00	-23.01	7.396	5.12926	7.25456	4730.0
7.9444	86.3724	-0.24	0.13	0.00	-23.01	7.396	5.12672	7.25635	3820.0
7.9644	86.3724	-0.24	0.13	0.00	-23.01	7.396	5.12419	7.25814	3394.0
7.9844	86.3724	-0.24	0.13	0.00	-23.01	7.396	5.12166	7.25993	2954.0
8.0044	86.3724	-0.24	0.13	0.00	-23.01	7.396	5.11912	7.26171	2424.0
8.0244	86.3724	-0.24	0.13	0.00	-23.01	7.396	5.11659	7.26350	2038.0
8.0444	86.3724	-0.24	0.13	0.00	-23.01	7.396	5.11405	7.26529	1710.0
8.0644	86.3724	-0.24	0.13	0.00	-23.01	7.396	5.11151	7.26707	1406.0
8.0844	86.3724	-0.24	0.13	0.00	-23.01	7.396	5.10898	7.26885	1102.0
8.1044	86.3724	-0.24	0.13	0.00	-23.01	7.396	5.10644	7.27064	870.0
8.1244	86.3724	-0.24	0.13	0.00	-23.01	7.396	5.10390	7.27242	658.0
8.1444	86.3724	-0.24	0.13	0.00	-23.01	7.396	5.10136	7.27420	538.0
8.1644	86.3724	-0.24	0.13	0.00	-23.01	7.396	5.09882	7.27598	412.0
8.1844	86.3724	-0.24	0.13	0.00	-23.01	7.396	5.09628	7.27776	228.0
8.2044	86.3724	-0.24	0.13	0.00	-23.01	7.396	5.09374	7.27954	180.0
8.2244	86.3724	-0.24	0.13	0.00	-23.01	7.396	5.09120	7.28132	84.0
8.2444	86.3724	-0.24	0.13	0.00	-23.01	7.396	5.08866	7.28309	64.0
8.2644	86.3724	-0.24	0.13	0.00	-23.01	7.396	5.08612	7.28487	54.0
8.2844	86.3724	-0.24	0.13	0.00	-23.01	7.396	5.08357	7.28664	14.0
8.3044	86.3724	-0.24	0.13	0.00	-23.01	7.396	5.08103	7.28842	16.0
8.3244	86.3724	-0.24	0.13	0.00	-23.01	7.396	5.07848	7.29019	4.0
8.3444	86.3724	-0.24	0.13	0.00	-23.01	7.396	5.07594	7.29196	2.0
8.3644	86.3724	-0.24	0.13	0.00	-23.01	7.396	5.07339	7.29373	2.0
8.3844	86.3724	-0.24	0.13	0.00	-23.01	7.396	5.07085	7.29550	4.0
8.4044	86.3724	-0.24	0.13	0.00	-23.01	7.396	5.06830	7.29727	0.0
8.4244	86.3724	-0.24	0.13	0.00	-23.01	7.396	5.06575	7.29904	2.0
8.4444	86.3724	-0.24	0.13	0.00	-23.01	7.396	5.06321	7.30081	2.0
8.4644	86.3724	-0.24	0.13	0.00	-23.01	7.396	5.06066	7.30258	4.0
8.4844	86.3724	-0.24	0.13	0.00	-23.01	7.396	5.05811	7.30434	2.0
8.5044	86.3724	-0.24	0.13	0.00	-23.01	7.396	5.05556	7.30611	4.0
8.5244	86.3724	-0.24	0.13	0.00	-23.01	7.396	5.05301	7.30787	4.0
8.5444	86.3724	-0.24	0.13	0.00	-23.01	7.396	5.05046	7.30964	2.0
8.5644	86.3724	-0.24	0.13	0.00	-23.01	7.396	5.04790	7.31140	0.0
8.5844	86.3724	-0.24	0.13	0.00	-23.01	7.396	5.04535	7.31316	4.0
8.6044	86.3724	-0.24	0.13	0.00	-23.01	7.396	5.04280	7.31492	0.0
8.6244	86.3724	-0.24	0.13	0.00	-23.01	7.396	5.04024	7.31668	0.0
8.6444	86.3724	-0.24	0.13	0.00	-23.01	7.396	5.03769	7.31844	0.0
8.6644	86.3724	-0.24	0.13	0.00	-23.01	7.396	5.03513	7.32020	4.0
8.6844	86.3724	-0.24	0.13	0.00	-23.01	7.396	5.03258	7.32196	0.0
8.7044	86.3724	-0.24	0.13	0.00	-23.01	7.396	5.03002	7.32371	0.0
8.7244	86.3724	-0.24	0.13	0.00	-23.01	7.396	5.02747	7.32547	4.0
8.7444	86.3724	-0.24	0.13	0.00	-23.01	7.396	5.02491	7.32722	4.0
8.7644	86.3724	-0.24	0.13	0.00	-23.01	7.396	5.02235	7.32897	0.0
8.7844	86.3724	-0.24	0.13	0.00	-23.01	7.396	5.01979	7.33073	2.0
8.8044	86.3724	-0.24	0.13	0.00	-23.01	7.396	5.01723	7.33248	0.0

File: 2.0deg-2.0deg-rsm-3h10mins_11358-as-grown_224_w-scans_w_066-066.dat
# filename: 2.0deg-2.0deg-rsm-3h10mins_11358-as-grown_224_w-scans.dat
# reflection: (004)
# type: Projection of 0 omega (rotated)  scans
# x-axis: omega
#
# Omega	2Theta	Phi  	Chi   	X    	Y    	Z    	q_para	q_perp	Intensity
# [deg]	[deg] 	[deg]	[deg] 	[mm] 	[mm] 	[mm] 	[nm-1]	[nm-1]	[counts/s]
6.7387	86.3934	2.82	0.06	10.00	-20.00	7.326	5.28062	7.14729	2.0
6.7587	86.3934	2.82	0.06	10.00	-20.00	7.326	5.27812	7.14914	2.0
6.7787	86.3934	2.82	0.06	10.00	-20.00	7.326	5.27562	7.15098	0.0
6.7987	86.3934	2.82	0.06	10.00	-20.00	7.326	5.27313	7.15282	2.0
6.8187	86.3934	2.82	0.06	10.00	-20.00	7.326	5.27063	7.15466	0.0
6.8387	86.3934	2.82	0.06	10.00	-20.00	7.326	5.26813	7.15650	0.0
6.8587	86.3934	2.82	0.06	10.00	-20.00	7.326	5.26563	7.15834	2.0
6.8787	86.3934	2.82	0.06	10.00	-20.00	7.326	5.26314	7.16018	0.0
6.8987	86.3934	2.82	0.06	10.00	-20.00	7.326	5.26064	7.16201	2.0
6.9187	86.3934	2.82	0.06	10.00	-20.00	7.326	5.25814	7.16385	4.0
6.9387	86.3934	2.82	0.06	10.00	-20.00	7.326	5.25563	7.16568	4.0
6.9587	86.3934	2.82	0.06	10.00	-20.00	7.326	5.25313	7.16752	4.0
6.9787	86.3934	2.82	0.06	10.00	-20.00	7.326	5.25063	7.16935	0.0
6.9987	86.3934	2.82	0.06	10.00	-20.00	7.326	5.24813	7.17118	2.0
7.0187	86.3934	2.82	0.06	10.00	-20.00	7.326	5.24562	7.17301	4.0
7.0387	86.3934	2.82	0.06	10.00	-20.00	7.326	5.24312	7.17484	0.0
7.0587	86.3934	2.82	0.06	10.00	-20.00	7.326	5.24062	7.17667	2.0
7.0787	86.3934	2.82	0.06	10.00	-20.00	7.326	5.23811	7.17850	2.0
7.0987	86.3934	2.82	0.06	10.00	-20.00	7.326	5.23560	7.18033	2.0
7.1187	86.3934	2.82	0.06	10.00	-20.00	7.326	5.23310	7.18216	6.0
7.1387	86.3934	2.82	0.06	10.00	-20.00	7.326	5.23059	7.18398	0.0
7.1587	86.3934	2.82	0.06	10.00	-20.00	7.326	5.22808	7.18581	2.0
7.1787	86.3934	2.82	0.06	10.00	-20.00	7.326	5.22557	7.18763	4.0
7.1987	86.3934	2.82	0.06	10.00	-20.00	7.326	5.22306	7.18946	2.0
7.2187	86.3934	2.82	0.06	10.00	-20.00	7.326	5.22055	7.19128	6.0
7.2387	86.3934	2.82	0.06	10.00	-20.00	7.326	5.21804	7.19310	10.0
7.2587	86.3934	2.82	0.06	10.00	-20.00	7.326	5.21553	7.19492	18.0
7.2787	86.3934	2.82	0.06	10.00	-20.00	7.326	5.21302	7.19674	16.0
7.2987	86.3934	2.82	0.06	10.00	-20.00	7.326	5.21051	7.19856	40.0
7.3187	86.3934	2.82	0.06	10.00	-20.00	7.326	5.20799	7.20038	88.0
7.3387	86.3934	2.82	0.06	10.00	-20.00	7.326	5.20548	7.20220	148.0
7.3587	86.3934	2.82	0.06	10.00	-20.00	7.326	5.20297	7.20402	232.0
7.3787	86.3934	2.82	0.06	10.00	-20.00	7.326	5.20045	7.20583	382.0
7.3987	86.3934	2.82	0.06	10.00	-20.00	7.326	5.19794	7.20765	588.0
7.4187	86.3934	2.82	0.06	10.00	-20.00	7.326	5.19542	7.20946	926.0
7.4387	86.3934	2.82	0.06	10.00	-20.00	7.326	5.19290	7.21127	1376.0
7.4587	86.3934	2.82	0.06	10.00	-20.00	7.326	5.19039	7.21309	2012.0
7.4787	86.3934	2.82	0.06	10.00	-20.00	7.326	5.18787	7.21490	2840.0
7.4987	86.3934	2.82	0.06	10.00	-20.00	7.326	5.18535	7.21671	3808.0
7.5187	86.3934	2.82	0.06	10.00	-20.00	7.326	5.18283	7.21852	5170.0
7.5387	86.3934	2.82	0.06	10.00	-20.00	7.326	5.18031	7.22033	7022.0
7.5587	86.3934	2.82	0.06	10.00	-20.00	7.326	5.17779	7.22213	8580.0
7.5787	86.3934	2.82	0.06	10.00	-20.00	7.326	5.17527	7.22394	10560.0
7.5987	86.3934	2.82	0.06	10.00	-20.00	7.326	5.17275	7.22575	12390.0
7.6187	86.3934	2.82	0.06	10.00	-20.00	7.326	5.17022	7.22755	14134.0
7.6387	86.3934	2.82	0.06	10.00	-20.00	7.326	5.16770	7.22936	15734.0
7.6587	86.3934	2.82	0.06	10.00	-20.00	7.326	5.16518	7.23116	17054.0
7.6787	86.3934	2.82	0.06	10.00	-20.00	7.326	5.16265	7.23296	17646.0
7.6987	86.3934	2.82	0.06	10.00	-20.00	7.326	5.16013	7.23476	18120.0
7.7187	86.3934	2.82	0.06	10.00	-20.00	7.326	5.15760	7.23656	18138.0
7.7387	86.3934	2.82	0.06	10.00	-20.00	7.326	5.15507	7.23836	17842.0
7.7587	86.3934	2.82	0.06	10.00	-20.00	7.326	5.15255	7.24016	17266.0
7.7787	86.3934	2.82	0.06	10.00	-20.00	7.326	5.15002	7.24196	15652.0
7.7987	86.3934	2.82	0.06	10.00	-20.00	7.326	5.14749	7.24376	14356.0
7.8187	86.3934	2.82	0.06	10.00	-20.00	7.326	5.14496	7.24556	12318.0
7.8387	86.3934	2.82	0.06	10.00	-20.00	7.326	5.14243	7.24735	10452.0
7.8587	86.3934	2.82	0.06	10.00	-20.00	7.326	5.13990	7.24915	8590.0
7.8787	86.3934	2.82	0.06	10.00	-20.00	7.326	5.13737	7.25094	6920.0
7.8987	86.3934	2.82	0.06	10.00	-20.00	7.326	5.13484	7.25273	5794.0
7.9187	86.3934	2.82	0.06	10.00	-20.00	7.326	5.13231	7.25452	4406.0
7.9387	86.3934	2.82	0.06	10.00	-20.00	7.326	5.12978	7.25632	3336.0
7.9587	86.3934	2.82	0.06	10.00	-20.00	7.326	5.12724	7.25811	2446.0
7.9787	86.3934	2.82	0.06	10.00	-20.00	7.326	5.12471	7.25989	1736.0
7.9987	86.3934	2.82	0.06	10.00	-20.00	7.326	5.12217	7.26168	1372.0
8.0187	86.3934	2.82	0.06	10.00	-20.00	7.326	5.11964	7.26347	978.0
8.0387	86.3934	2.82	0.06	10.00	-20.00	7.326	5.11710	7.26526	744.0
8.0587	86.3934	2.82	0.06	10.00	-20.00	7.326	5.11457	7.26704	470.0
8.0787	86.3934	2.82	0.06	10.00	-20.00	7.326	5.11203	7.26883	286.0
8.0987	86.3934	2.82	0.06	10.00	-20.00	7.326	5.10949	7.27061	188.0
8.1187	86.3934	2.82	0.06	10.00	-20.00	7.326	5.10695	7.27239	114.0
8.1387	86.3934	2.82	0.06	10.00	-20.00	7.326	5.10442	7.27418	84.0
8.1587	86.3934	2.82	0.06	10.00	-20.00	7.326	5.10188	7.27596	46.0
8.1787	86.3934	2.82	0.06	10.00	-20.00	7.326	5.09934	7.27774	12.0
8.1987	86.3934	2.82	0.06	10.00	-20.00	7.326	5.09679	7.27952	12.0
8.2187	86.3934	2.82	0.06	10.00	-20.00	7.326	5.09425	7.28130	12.0
8.2387	86.3934	2.82	0.06	10.00	-20.00	7.326	5.09171	7.28307	4.0
8.2587	86.3934	2.82	0.06	10.00	-20.00	7.326	5.08917	7.28485	4.0
8.2787	86.3934	2.82	0.06	10.00	-20.00	7.326	5.08663	7.28663	0.0
8.2987	86.3934	2.82	0.06	10.00	-20.00	7.326	5.08408	7.28840	2.0
8.3187	86.3934	2.82	0.06	10.00	-20.00	7.326	5.08154	7.29018	0.0
8.3387	86.3934	2.82	0.06	10.00	-20.00	7.326	5.07899	7.29195	6.0
8.3587	86.3934	2.82	0.06	10.00	-20.00	7.326	5.07645	7.29372	2.0
8.3787	86.3934	2.82	0.06	10.00	-20.00	7.326	5.07390	7.29549	0.0
8.3987	86.3934	2.82	0.06	10.00	-20.00	7.326	5.07135	7.29727	0.0
8.4187	86.3934	2.82	0.06	10.00	-20.00	7.326	5.06881	7.29903	0.0
8.4387	86.3934	2.82	0.06	10.00	-20.00	7.326	5.06626	7.30080	0.0
8.4587	86.3934	2.82	0.06	10.00	-20.00	7.326	5.06371	7.30257	0.0
8.4787	86.3934	2.82	0.06	10.00	-20.00	7.326	5.06116	7.30434	4.0
8.4987	86.3934	2.82	0.06	10.00	-20.00	7.326	5.05861	7.30611	2.0
8.5187	86.3934	2.82	0.06	10.00	-20.00	7.326	5.05606	7.30787	0.0
8.5387	86.3934	2.82	0.06	10.00	-20.00	7.326	5.05351	7.30964	4.0
8.5587	86.3934	2.82	0.06	10.00	-20.00	7.326	5.05096	7.31140	0.0
8.5787	86.3934	2.82	0.06	10.00	-20.00	7.326	5.04840	7.31316	0.0
8.5987	86.3934	2.82	0.06	10.00	-20.00	7.326	5.04585	7.31492	0.0
8.6187	86.3934	2.82	0.06	10.00	-20.00	7.326	5.04330	7.31668	0.0
8.6387	86.3934	2.82	0.06	10.00	-20.00	7.326	5.04074	7.31844	0.0
8.6587	86.3934	2.82	0.06	10.00	-20.00	7.326	5.03819	7.32020	2.0
8.6787	86.3934	2.82	0.06	10.00	-20.00	7.326	5.03563	7.32196	0.0
8.6987	86.3934	2.82	0.06	10.00	-20.00	7.326	5.03308	7.32372	2.0
8.7187	86.3934	2.82	0.06	10.00	-20.00	7.326	5.03052	7.32548	0.0
8.7387	86.3934	2.82	0.06	10.00	-20.00	7.326	5.02796	7.32723	2.0