Folder: Thesis_XRD/Data/Projection_SiGePeak (part 5)

File: 2.0deg-2.0deg-rsm-3h10mins_11354-annealed_224_w-scans_w_065-065.dat
# filename: 2.0deg-2.0deg-rsm-3h10mins_11354-annealed_224_w-scans.dat
# reflection: (004)
# type: Projection of 0 omega (rotated)  scans
# x-axis: omega
#
# Omega	2Theta	Phi  	Chi   	X    	Y    	Z    	q_para	q_perp	Intensity
# [deg]	[deg] 	[deg]	[deg] 	[mm] 	[mm] 	[mm] 	[nm-1]	[nm-1]	[counts/s]
7.4451	86.3742	-0.10	0.10	0.00	-22.75	7.333	5.18996	7.21144	4.0
7.4651	86.3742	-0.10	0.10	0.00	-22.75	7.333	5.18745	7.21325	0.0
7.4851	86.3742	-0.10	0.10	0.00	-22.75	7.333	5.18493	7.21506	2.0
7.5051	86.3742	-0.10	0.10	0.00	-22.75	7.333	5.18241	7.21687	2.0
7.5251	86.3742	-0.10	0.10	0.00	-22.75	7.333	5.17989	7.21868	0.0
7.5451	86.3742	-0.10	0.10	0.00	-22.75	7.333	5.17737	7.22048	2.0
7.5651	86.3742	-0.10	0.10	0.00	-22.75	7.333	5.17485	7.22229	0.0
7.5851	86.3742	-0.10	0.10	0.00	-22.75	7.333	5.17233	7.22410	0.0
7.6051	86.3742	-0.10	0.10	0.00	-22.75	7.333	5.16980	7.22590	6.0
7.6251	86.3742	-0.10	0.10	0.00	-22.75	7.333	5.16728	7.22771	2.0
7.6451	86.3742	-0.10	0.10	0.00	-22.75	7.333	5.16476	7.22951	2.0
7.6651	86.3742	-0.10	0.10	0.00	-22.75	7.333	5.16223	7.23131	4.0
7.6851	86.3742	-0.10	0.10	0.00	-22.75	7.333	5.15971	7.23311	2.0
7.7051	86.3742	-0.10	0.10	0.00	-22.75	7.333	5.15718	7.23491	0.0
7.7251	86.3742	-0.10	0.10	0.00	-22.75	7.333	5.15466	7.23671	0.0
7.7451	86.3742	-0.10	0.10	0.00	-22.75	7.333	5.15213	7.23851	4.0
7.7651	86.3742	-0.10	0.10	0.00	-22.75	7.333	5.14961	7.24031	4.0
7.7851	86.3742	-0.10	0.10	0.00	-22.75	7.333	5.14708	7.24211	0.0
7.8051	86.3742	-0.10	0.10	0.00	-22.75	7.333	5.14455	7.24390	2.0
7.8251	86.3742	-0.10	0.10	0.00	-22.75	7.333	5.14202	7.24570	2.0
7.8451	86.3742	-0.10	0.10	0.00	-22.75	7.333	5.13949	7.24749	2.0
7.8651	86.3742	-0.10	0.10	0.00	-22.75	7.333	5.13696	7.24929	6.0
7.8851	86.3742	-0.10	0.10	0.00	-22.75	7.333	5.13443	7.25108	2.0
7.9051	86.3742	-0.10	0.10	0.00	-22.75	7.333	5.13190	7.25287	4.0
7.9251	86.3742	-0.10	0.10	0.00	-22.75	7.333	5.12937	7.25466	8.0
7.9451	86.3742	-0.10	0.10	0.00	-22.75	7.333	5.12683	7.25645	2.0
7.9651	86.3742	-0.10	0.10	0.00	-22.75	7.333	5.12430	7.25824	4.0
7.9851	86.3742	-0.10	0.10	0.00	-22.75	7.333	5.12177	7.26003	0.0
8.0051	86.3742	-0.10	0.10	0.00	-22.75	7.333	5.11923	7.26182	14.0
8.0251	86.3742	-0.10	0.10	0.00	-22.75	7.333	5.11670	7.26360	24.0
8.0451	86.3742	-0.10	0.10	0.00	-22.75	7.333	5.11416	7.26539	18.0
8.0651	86.3742	-0.10	0.10	0.00	-22.75	7.333	5.11163	7.26717	30.0
8.0851	86.3742	-0.10	0.10	0.00	-22.75	7.333	5.10909	7.26896	82.0
8.1051	86.3742	-0.10	0.10	0.00	-22.75	7.333	5.10655	7.27074	96.0
8.1251	86.3742	-0.10	0.10	0.00	-22.75	7.333	5.10401	7.27252	244.0
8.1451	86.3742	-0.10	0.10	0.00	-22.75	7.333	5.10147	7.27430	508.0
8.1651	86.3742	-0.10	0.10	0.00	-22.75	7.333	5.09893	7.27608	662.0
8.1851	86.3742	-0.10	0.10	0.00	-22.75	7.333	5.09639	7.27786	1274.0
8.2051	86.3742	-0.10	0.10	0.00	-22.75	7.333	5.09385	7.27964	1906.0
8.2251	86.3742	-0.10	0.10	0.00	-22.75	7.333	5.09131	7.28142	2864.0
8.2451	86.3742	-0.10	0.10	0.00	-22.75	7.333	5.08877	7.28320	4134.0
8.2651	86.3742	-0.10	0.10	0.00	-22.75	7.333	5.08623	7.28497	5692.0
8.2851	86.3742	-0.10	0.10	0.00	-22.75	7.333	5.08368	7.28675	7704.0
8.3051	86.3742	-0.10	0.10	0.00	-22.75	7.333	5.08114	7.28852	9752.0
8.3251	86.3742	-0.10	0.10	0.00	-22.75	7.333	5.07860	7.29029	12148.0
8.3451	86.3742	-0.10	0.10	0.00	-22.75	7.333	5.07605	7.29207	15032.0
8.3651	86.3742	-0.10	0.10	0.00	-22.75	7.333	5.07350	7.29384	16920.0
8.3851	86.3742	-0.10	0.10	0.00	-22.75	7.333	5.07096	7.29561	19638.0
8.4051	86.3742	-0.10	0.10	0.00	-22.75	7.333	5.06841	7.29738	21202.0
8.4251	86.3742	-0.10	0.10	0.00	-22.75	7.333	5.06586	7.29915	22838.0
8.4451	86.3742	-0.10	0.10	0.00	-22.75	7.333	5.06332	7.30092	23110.0
8.4651	86.3742	-0.10	0.10	0.00	-22.75	7.333	5.06077	7.30268	21434.0
8.4851	86.3742	-0.10	0.10	0.00	-22.75	7.333	5.05822	7.30445	20492.0
8.5051	86.3742	-0.10	0.10	0.00	-22.75	7.333	5.05567	7.30621	18104.0
8.5251	86.3742	-0.10	0.10	0.00	-22.75	7.333	5.05312	7.30798	15674.0
8.5451	86.3742	-0.10	0.10	0.00	-22.75	7.333	5.05057	7.30974	12592.0
8.5651	86.3742	-0.10	0.10	0.00	-22.75	7.333	5.04801	7.31150	10220.0
8.5851	86.3742	-0.10	0.10	0.00	-22.75	7.333	5.04546	7.31327	7470.0
8.6051	86.3742	-0.10	0.10	0.00	-22.75	7.333	5.04291	7.31503	5448.0
8.6251	86.3742	-0.10	0.10	0.00	-22.75	7.333	5.04035	7.31679	3820.0
8.6451	86.3742	-0.10	0.10	0.00	-22.75	7.333	5.03780	7.31855	2562.0
8.6651	86.3742	-0.10	0.10	0.00	-22.75	7.333	5.03524	7.32030	1640.0
8.6851	86.3742	-0.10	0.10	0.00	-22.75	7.333	5.03269	7.32206	986.0
8.7051	86.3742	-0.10	0.10	0.00	-22.75	7.333	5.03013	7.32382	590.0
8.7251	86.3742	-0.10	0.10	0.00	-22.75	7.333	5.02758	7.32557	392.0
8.7451	86.3742	-0.10	0.10	0.00	-22.75	7.333	5.02502	7.32733	180.0
8.7651	86.3742	-0.10	0.10	0.00	-22.75	7.333	5.02246	7.32908	152.0
8.7851	86.3742	-0.10	0.10	0.00	-22.75	7.333	5.01990	7.33083	110.0
8.8051	86.3742	-0.10	0.10	0.00	-22.75	7.333	5.01734	7.33258	46.0
8.8251	86.3742	-0.10	0.10	0.00	-22.75	7.333	5.01478	7.33434	30.0
8.8451	86.3742	-0.10	0.10	0.00	-22.75	7.333	5.01222	7.33609	20.0
8.8651	86.3742	-0.10	0.10	0.00	-22.75	7.333	5.00966	7.33783	12.0
8.8851	86.3742	-0.10	0.10	0.00	-22.75	7.333	5.00710	7.33958	10.0
8.9051	86.3742	-0.10	0.10	0.00	-22.75	7.333	5.00454	7.34133	6.0
8.9251	86.3742	-0.10	0.10	0.00	-22.75	7.333	5.00197	7.34308	8.0
8.9451	86.3742	-0.10	0.10	0.00	-22.75	7.333	4.99941	7.34482	6.0
8.9651	86.3742	-0.10	0.10	0.00	-22.75	7.333	4.99685	7.34657	0.0
8.9851	86.3742	-0.10	0.10	0.00	-22.75	7.333	4.99428	7.34831	0.0
9.0051	86.3742	-0.10	0.10	0.00	-22.75	7.333	4.99172	7.35005	2.0
9.0251	86.3742	-0.10	0.10	0.00	-22.75	7.333	4.98915	7.35180	4.0
9.0451	86.3742	-0.10	0.10	0.00	-22.75	7.333	4.98658	7.35354	0.0
9.0651	86.3742	-0.10	0.10	0.00	-22.75	7.333	4.98402	7.35528	2.0
9.0851	86.3742	-0.10	0.10	0.00	-22.75	7.333	4.98145	7.35702	2.0
9.1051	86.3742	-0.10	0.10	0.00	-22.75	7.333	4.97888	7.35875	2.0
9.1251	86.3742	-0.10	0.10	0.00	-22.75	7.333	4.97631	7.36049	2.0
9.1451	86.3742	-0.10	0.10	0.00	-22.75	7.333	4.97374	7.36223	2.0
9.1651	86.3742	-0.10	0.10	0.00	-22.75	7.333	4.97117	7.36396	0.0
9.1851	86.3742	-0.10	0.10	0.00	-22.75	7.333	4.96860	7.36570	0.0
9.2051	86.3742	-0.10	0.10	0.00	-22.75	7.333	4.96603	7.36743	4.0
9.2251	86.3742	-0.10	0.10	0.00	-22.75	7.333	4.96346	7.36917	4.0
9.2451	86.3742	-0.10	0.10	0.00	-22.75	7.333	4.96089	7.37090	0.0
9.2651	86.3742	-0.10	0.10	0.00	-22.75	7.333	4.95831	7.37263	2.0
9.2851	86.3742	-0.10	0.10	0.00	-22.75	7.333	4.95574	7.37436	2.0
9.3051	86.3742	-0.10	0.10	0.00	-22.75	7.333	4.95316	7.37609	2.0
9.3251	86.3742	-0.10	0.10	0.00	-22.75	7.333	4.95059	7.37782	0.0
9.3451	86.3742	-0.10	0.10	0.00	-22.75	7.333	4.94801	7.37955	2.0
9.3651	86.3742	-0.10	0.10	0.00	-22.75	7.333	4.94544	7.38127	0.0
9.3851	86.3742	-0.10	0.10	0.00	-22.75	7.333	4.94286	7.38300	0.0
9.4051	86.3742	-0.10	0.10	0.00	-22.75	7.333	4.94028	7.38472	0.0
9.4251	86.3742	-0.10	0.10	0.00	-22.75	7.333	4.93770	7.38645	4.0
9.4451	86.3742	-0.10	0.10	0.00	-22.75	7.333	4.93513	7.38817	2.0

File: 2.0deg-2.0deg-rsm-3h10mins_11354-as-grown_224_w-scans_w_065-065.dat
# filename: 2.0deg-2.0deg-rsm-3h10mins_11354-as-grown_224_w-scans.dat
# reflection: (004)
# type: Projection of 0 omega (rotated)  scans
# x-axis: omega
#
# Omega	2Theta	Phi  	Chi   	X    	Y    	Z    	q_para	q_perp	Intensity
# [deg]	[deg] 	[deg]	[deg] 	[mm] 	[mm] 	[mm] 	[nm-1]	[nm-1]	[counts/s]
6.5365	86.3720	1.74	0.08	10.00	20.00	7.278	5.30342	7.12819	0.0
6.5565	86.3720	1.74	0.08	10.00	20.00	7.278	5.30093	7.13004	2.0
6.5765	86.3720	1.74	0.08	10.00	20.00	7.278	5.29844	7.13189	0.0
6.5965	86.3720	1.74	0.08	10.00	20.00	7.278	5.29595	7.13374	0.0
6.6165	86.3720	1.74	0.08	10.00	20.00	7.278	5.29346	7.13558	0.0
6.6365	86.3720	1.74	0.08	10.00	20.00	7.278	5.29097	7.13743	2.0
6.6565	86.3720	1.74	0.08	10.00	20.00	7.278	5.28848	7.13928	0.0
6.6765	86.3720	1.74	0.08	10.00	20.00	7.278	5.28599	7.14112	0.0
6.6965	86.3720	1.74	0.08	10.00	20.00	7.278	5.28349	7.14297	0.0
6.7165	86.3720	1.74	0.08	10.00	20.00	7.278	5.28100	7.14481	0.0
6.7365	86.3720	1.74	0.08	10.00	20.00	7.278	5.27851	7.14666	2.0
6.7565	86.3720	1.74	0.08	10.00	20.00	7.278	5.27601	7.14850	2.0
6.7765	86.3720	1.74	0.08	10.00	20.00	7.278	5.27351	7.15034	2.0
6.7965	86.3720	1.74	0.08	10.00	20.00	7.278	5.27102	7.15218	0.0
6.8165	86.3720	1.74	0.08	10.00	20.00	7.278	5.26852	7.15402	4.0
6.8365	86.3720	1.74	0.08	10.00	20.00	7.278	5.26602	7.15586	4.0
6.8565	86.3720	1.74	0.08	10.00	20.00	7.278	5.26353	7.15769	2.0
6.8765	86.3720	1.74	0.08	10.00	20.00	7.278	5.26103	7.15953	2.0
6.8965	86.3720	1.74	0.08	10.00	20.00	7.278	5.25853	7.16137	2.0
6.9165	86.3720	1.74	0.08	10.00	20.00	7.278	5.25603	7.16320	2.0
6.9365	86.3720	1.74	0.08	10.00	20.00	7.278	5.25353	7.16504	4.0
6.9565	86.3720	1.74	0.08	10.00	20.00	7.278	5.25102	7.16687	2.0
6.9765	86.3720	1.74	0.08	10.00	20.00	7.278	5.24852	7.16870	0.0
6.9965	86.3720	1.74	0.08	10.00	20.00	7.278	5.24602	7.17053	0.0
7.0165	86.3720	1.74	0.08	10.00	20.00	7.278	5.24352	7.17237	4.0
7.0365	86.3720	1.74	0.08	10.00	20.00	7.278	5.24101	7.17420	4.0
7.0565	86.3720	1.74	0.08	10.00	20.00	7.278	5.23851	7.17602	6.0
7.0765	86.3720	1.74	0.08	10.00	20.00	7.278	5.23600	7.17785	4.0
7.0965	86.3720	1.74	0.08	10.00	20.00	7.278	5.23350	7.17968	8.0
7.1165	86.3720	1.74	0.08	10.00	20.00	7.278	5.23099	7.18151	12.0
7.1365	86.3720	1.74	0.08	10.00	20.00	7.278	5.22848	7.18333	16.0
7.1565	86.3720	1.74	0.08	10.00	20.00	7.278	5.22598	7.18516	40.0
7.1765	86.3720	1.74	0.08	10.00	20.00	7.278	5.22347	7.18698	40.0
7.1965	86.3720	1.74	0.08	10.00	20.00	7.278	5.22096	7.18880	80.0
7.2165	86.3720	1.74	0.08	10.00	20.00	7.278	5.21845	7.19062	180.0
7.2365	86.3720	1.74	0.08	10.00	20.00	7.278	5.21594	7.19245	260.0
7.2565	86.3720	1.74	0.08	10.00	20.00	7.278	5.21343	7.19427	448.0
7.2765	86.3720	1.74	0.08	10.00	20.00	7.278	5.21092	7.19609	662.0
7.2965	86.3720	1.74	0.08	10.00	20.00	7.278	5.20840	7.19790	1182.0
7.3165	86.3720	1.74	0.08	10.00	20.00	7.278	5.20589	7.19972	1862.0
7.3365	86.3720	1.74	0.08	10.00	20.00	7.278	5.20338	7.20154	2756.0
7.3565	86.3720	1.74	0.08	10.00	20.00	7.278	5.20086	7.20335	3988.0
7.3765	86.3720	1.74	0.08	10.00	20.00	7.278	5.19835	7.20517	5512.0
7.3965	86.3720	1.74	0.08	10.00	20.00	7.278	5.19583	7.20698	7192.0
7.4165	86.3720	1.74	0.08	10.00	20.00	7.278	5.19332	7.20880	9674.0
7.4365	86.3720	1.74	0.08	10.00	20.00	7.278	5.19080	7.21061	12038.0
7.4565	86.3720	1.74	0.08	10.00	20.00	7.278	5.18828	7.21242	14836.0
7.4765	86.3720	1.74	0.08	10.00	20.00	7.278	5.18577	7.21423	17110.0
7.4965	86.3720	1.74	0.08	10.00	20.00	7.278	5.18325	7.21604	19246.0
7.5165	86.3720	1.74	0.08	10.00	20.00	7.278	5.18073	7.21785	20838.0
7.5365	86.3720	1.74	0.08	10.00	20.00	7.278	5.17821	7.21966	22076.0
7.5565	86.3720	1.74	0.08	10.00	20.00	7.278	5.17569	7.22147	22016.0
7.5765	86.3720	1.74	0.08	10.00	20.00	7.278	5.17317	7.22327	21616.0
7.5965	86.3720	1.74	0.08	10.00	20.00	7.278	5.17064	7.22508	20484.0
7.6165	86.3720	1.74	0.08	10.00	20.00	7.278	5.16812	7.22688	18298.0
7.6365	86.3720	1.74	0.08	10.00	20.00	7.278	5.16560	7.22868	15686.0
7.6565	86.3720	1.74	0.08	10.00	20.00	7.278	5.16308	7.23049	13178.0
7.6765	86.3720	1.74	0.08	10.00	20.00	7.278	5.16055	7.23229	10362.0
7.6965	86.3720	1.74	0.08	10.00	20.00	7.278	5.15803	7.23409	8492.0
7.7165	86.3720	1.74	0.08	10.00	20.00	7.278	5.15550	7.23589	6614.0
7.7365	86.3720	1.74	0.08	10.00	20.00	7.278	5.15297	7.23769	4812.0
7.7565	86.3720	1.74	0.08	10.00	20.00	7.278	5.15045	7.23949	3626.0
7.7765	86.3720	1.74	0.08	10.00	20.00	7.278	5.14792	7.24129	2608.0
7.7965	86.3720	1.74	0.08	10.00	20.00	7.278	5.14539	7.24308	1708.0
7.8165	86.3720	1.74	0.08	10.00	20.00	7.278	5.14286	7.24488	962.0
7.8365	86.3720	1.74	0.08	10.00	20.00	7.278	5.14033	7.24667	578.0
7.8565	86.3720	1.74	0.08	10.00	20.00	7.278	5.13780	7.24847	340.0
7.8765	86.3720	1.74	0.08	10.00	20.00	7.278	5.13527	7.25026	204.0
7.8965	86.3720	1.74	0.08	10.00	20.00	7.278	5.13274	7.25205	130.0
7.9165	86.3720	1.74	0.08	10.00	20.00	7.278	5.13021	7.25384	100.0
7.9365	86.3720	1.74	0.08	10.00	20.00	7.278	5.12768	7.25563	46.0
7.9565	86.3720	1.74	0.08	10.00	20.00	7.278	5.12515	7.25742	44.0
7.9765	86.3720	1.74	0.08	10.00	20.00	7.278	5.12261	7.25921	44.0
7.9965	86.3720	1.74	0.08	10.00	20.00	7.278	5.12008	7.26100	22.0
8.0165	86.3720	1.74	0.08	10.00	20.00	7.278	5.11754	7.26278	16.0
8.0365	86.3720	1.74	0.08	10.00	20.00	7.278	5.11501	7.26457	12.0
8.0565	86.3720	1.74	0.08	10.00	20.00	7.278	5.11247	7.26636	10.0
8.0765	86.3720	1.74	0.08	10.00	20.00	7.278	5.10993	7.26814	8.0
8.0965	86.3720	1.74	0.08	10.00	20.00	7.278	5.10740	7.26992	6.0
8.1165	86.3720	1.74	0.08	10.00	20.00	7.278	5.10486	7.27171	4.0
8.1365	86.3720	1.74	0.08	10.00	20.00	7.278	5.10232	7.27349	6.0
8.1565	86.3720	1.74	0.08	10.00	20.00	7.278	5.09978	7.27527	4.0
8.1765	86.3720	1.74	0.08	10.00	20.00	7.278	5.09724	7.27705	2.0
8.1965	86.3720	1.74	0.08	10.00	20.00	7.278	5.09470	7.27883	4.0
8.2165	86.3720	1.74	0.08	10.00	20.00	7.278	5.09216	7.28060	4.0
8.2365	86.3720	1.74	0.08	10.00	20.00	7.278	5.08962	7.28238	6.0
8.2565	86.3720	1.74	0.08	10.00	20.00	7.278	5.08708	7.28416	0.0
8.2765	86.3720	1.74	0.08	10.00	20.00	7.278	5.08453	7.28593	0.0
8.2965	86.3720	1.74	0.08	10.00	20.00	7.278	5.08199	7.28771	2.0
8.3165	86.3720	1.74	0.08	10.00	20.00	7.278	5.07945	7.28948	6.0
8.3365	86.3720	1.74	0.08	10.00	20.00	7.278	5.07690	7.29125	2.0
8.3565	86.3720	1.74	0.08	10.00	20.00	7.278	5.07436	7.29303	0.0
8.3765	86.3720	1.74	0.08	10.00	20.00	7.278	5.07181	7.29480	2.0
8.3965	86.3720	1.74	0.08	10.00	20.00	7.278	5.06926	7.29657	0.0
8.4165	86.3720	1.74	0.08	10.00	20.00	7.278	5.06672	7.29833	2.0
8.4365	86.3720	1.74	0.08	10.00	20.00	7.278	5.06417	7.30010	2.0
8.4565	86.3720	1.74	0.08	10.00	20.00	7.278	5.06162	7.30187	6.0
8.4765	86.3720	1.74	0.08	10.00	20.00	7.278	5.05907	7.30364	4.0
8.4965	86.3720	1.74	0.08	10.00	20.00	7.278	5.05652	7.30540	4.0
8.5165	86.3720	1.74	0.08	10.00	20.00	7.278	5.05397	7.30717	6.0
8.5365	86.3720	1.74	0.08	10.00	20.00	7.278	5.05142	7.30893	2.0

File: 2.0deg-2.0deg-rsm-3h10mins_11355-annealed_224_w-scans_w_066-066.dat
# filename: 2.0deg-2.0deg-rsm-3h10mins_11355-annealed_224_w-scans.dat
# reflection: (004)
# type: Projection of 0 omega (rotated)  scans
# x-axis: omega
#
# Omega	2Theta	Phi  	Chi   	X    	Y    	Z    	q_para	q_perp	Intensity
# [deg]	[deg] 	[deg]	[deg] 	[mm] 	[mm] 	[mm] 	[nm-1]	[nm-1]	[counts/s]
7.3428	86.3198	-0.70	0.35	0.00	15.50	7.376	5.19678	7.20098	0.0
7.3628	86.3198	-0.70	0.35	0.00	15.50	7.376	5.19427	7.20280	0.0
7.3828	86.3198	-0.70	0.35	0.00	15.50	7.376	5.19175	7.20461	0.0
7.4028	86.3198	-0.70	0.35	0.00	15.50	7.376	5.18924	7.20642	0.0
7.4228	86.3198	-0.70	0.35	0.00	15.50	7.376	5.18672	7.20823	0.0
7.4428	86.3198	-0.70	0.35	0.00	15.50	7.376	5.18420	7.21004	0.0
7.4628	86.3198	-0.70	0.35	0.00	15.50	7.376	5.18169	7.21185	0.0
7.4828	86.3198	-0.70	0.35	0.00	15.50	7.376	5.17917	7.21366	2.0
7.5028	86.3198	-0.70	0.35	0.00	15.50	7.376	5.17665	7.21547	0.0
7.5228	86.3198	-0.70	0.35	0.00	15.50	7.376	5.17413	7.21727	4.0
7.5428	86.3198	-0.70	0.35	0.00	15.50	7.376	5.17161	7.21908	2.0
7.5628	86.3198	-0.70	0.35	0.00	15.50	7.376	5.16909	7.22088	0.0
7.5828	86.3198	-0.70	0.35	0.00	15.50	7.376	5.16657	7.22269	2.0
7.6028	86.3198	-0.70	0.35	0.00	15.50	7.376	5.16405	7.22449	0.0
7.6228	86.3198	-0.70	0.35	0.00	15.50	7.376	5.16153	7.22629	4.0
7.6428	86.3198	-0.70	0.35	0.00	15.50	7.376	5.15900	7.22809	0.0
7.6628	86.3198	-0.70	0.35	0.00	15.50	7.376	5.15648	7.22989	0.0
7.6828	86.3198	-0.70	0.35	0.00	15.50	7.376	5.15396	7.23169	0.0
7.7028	86.3198	-0.70	0.35	0.00	15.50	7.376	5.15143	7.23349	2.0
7.7228	86.3198	-0.70	0.35	0.00	15.50	7.376	5.14891	7.23529	2.0
7.7428	86.3198	-0.70	0.35	0.00	15.50	7.376	5.14638	7.23709	6.0
7.7628	86.3198	-0.70	0.35	0.00	15.50	7.376	5.14386	7.23888	2.0
7.7828	86.3198	-0.70	0.35	0.00	15.50	7.376	5.14133	7.24068	2.0
7.8028	86.3198	-0.70	0.35	0.00	15.50	7.376	5.13880	7.24247	8.0
7.8228	86.3198	-0.70	0.35	0.00	15.50	7.376	5.13627	7.24427	2.0
7.8428	86.3198	-0.70	0.35	0.00	15.50	7.376	5.13374	7.24606	6.0
7.8628	86.3198	-0.70	0.35	0.00	15.50	7.376	5.13121	7.24785	2.0
7.8828	86.3198	-0.70	0.35	0.00	15.50	7.376	5.12868	7.24964	18.0
7.9028	86.3198	-0.70	0.35	0.00	15.50	7.376	5.12615	7.25143	40.0
7.9228	86.3198	-0.70	0.35	0.00	15.50	7.376	5.12362	7.25322	48.0
7.9428	86.3198	-0.70	0.35	0.00	15.50	7.376	5.12109	7.25501	70.0
7.9628	86.3198	-0.70	0.35	0.00	15.50	7.376	5.11856	7.25679	108.0
7.9828	86.3198	-0.70	0.35	0.00	15.50	7.376	5.11602	7.25858	108.0
8.0028	86.3198	-0.70	0.35	0.00	15.50	7.376	5.11349	7.26037	184.0
8.0228	86.3198	-0.70	0.35	0.00	15.50	7.376	5.11095	7.26215	240.0
8.0428	86.3198	-0.70	0.35	0.00	15.50	7.376	5.10842	7.26393	460.0
8.0628	86.3198	-0.70	0.35	0.00	15.50	7.376	5.10588	7.26572	856.0
8.0828	86.3198	-0.70	0.35	0.00	15.50	7.376	5.10335	7.26750	1308.0
8.1028	86.3198	-0.70	0.35	0.00	15.50	7.376	5.10081	7.26928	2132.0
8.1228	86.3198	-0.70	0.35	0.00	15.50	7.376	5.09827	7.27106	3276.0
8.1428	86.3198	-0.70	0.35	0.00	15.50	7.376	5.09573	7.27284	4708.0
8.1628	86.3198	-0.70	0.35	0.00	15.50	7.376	5.09319	7.27462	6546.0
8.1828	86.3198	-0.70	0.35	0.00	15.50	7.376	5.09065	7.27639	8708.0
8.2028	86.3198	-0.70	0.35	0.00	15.50	7.376	5.08811	7.27817	10796.0
8.2228	86.3198	-0.70	0.35	0.00	15.50	7.376	5.08557	7.27995	13164.0
8.2428	86.3198	-0.70	0.35	0.00	15.50	7.376	5.08303	7.28172	15264.0
8.2628	86.3198	-0.70	0.35	0.00	15.50	7.376	5.08049	7.28350	17062.0
8.2828	86.3198	-0.70	0.35	0.00	15.50	7.376	5.07795	7.28527	18966.0
8.3028	86.3198	-0.70	0.35	0.00	15.50	7.376	5.07540	7.28704	19570.0
8.3228	86.3198	-0.70	0.35	0.00	15.50	7.376	5.07286	7.28881	19624.0
8.3428	86.3198	-0.70	0.35	0.00	15.50	7.376	5.07031	7.29058	19166.0
8.3628	86.3198	-0.70	0.35	0.00	15.50	7.376	5.06777	7.29235	17918.0
8.3828	86.3198	-0.70	0.35	0.00	15.50	7.376	5.06522	7.29412	15670.0
8.4028	86.3198	-0.70	0.35	0.00	15.50	7.376	5.06268	7.29589	13624.0
8.4228	86.3198	-0.70	0.35	0.00	15.50	7.376	5.06013	7.29765	11374.0
8.4428	86.3198	-0.70	0.35	0.00	15.50	7.376	5.05758	7.29942	9314.0
8.4628	86.3198	-0.70	0.35	0.00	15.50	7.376	5.05503	7.30119	7048.0
8.4828	86.3198	-0.70	0.35	0.00	15.50	7.376	5.05248	7.30295	5350.0
8.5028	86.3198	-0.70	0.35	0.00	15.50	7.376	5.04994	7.30471	3812.0
8.5228	86.3198	-0.70	0.35	0.00	15.50	7.376	5.04739	7.30648	2562.0
8.5428	86.3198	-0.70	0.35	0.00	15.50	7.376	5.04483	7.30824	1714.0
8.5628	86.3198	-0.70	0.35	0.00	15.50	7.376	5.04228	7.31000	1122.0
8.5828	86.3198	-0.70	0.35	0.00	15.50	7.376	5.03973	7.31176	804.0
8.6028	86.3198	-0.70	0.35	0.00	15.50	7.376	5.03718	7.31352	462.0
8.6228	86.3198	-0.70	0.35	0.00	15.50	7.376	5.03463	7.31527	244.0
8.6428	86.3198	-0.70	0.35	0.00	15.50	7.376	5.03207	7.31703	162.0
8.6628	86.3198	-0.70	0.35	0.00	15.50	7.376	5.02952	7.31879	80.0
8.6828	86.3198	-0.70	0.35	0.00	15.50	7.376	5.02696	7.32054	52.0
8.7028	86.3198	-0.70	0.35	0.00	15.50	7.376	5.02441	7.32230	28.0
8.7228	86.3198	-0.70	0.35	0.00	15.50	7.376	5.02185	7.32405	12.0
8.7428	86.3198	-0.70	0.35	0.00	15.50	7.376	5.01929	7.32580	4.0
8.7628	86.3198	-0.70	0.35	0.00	15.50	7.376	5.01674	7.32755	6.0
8.7828	86.3198	-0.70	0.35	0.00	15.50	7.376	5.01418	7.32930	4.0
8.8028	86.3198	-0.70	0.35	0.00	15.50	7.376	5.01162	7.33105	6.0
8.8228	86.3198	-0.70	0.35	0.00	15.50	7.376	5.00906	7.33280	0.0
8.8428	86.3198	-0.70	0.35	0.00	15.50	7.376	5.00650	7.33455	0.0
8.8628	86.3198	-0.70	0.35	0.00	15.50	7.376	5.00394	7.33630	2.0
8.8828	86.3198	-0.70	0.35	0.00	15.50	7.376	5.00138	7.33804	0.0
8.9028	86.3198	-0.70	0.35	0.00	15.50	7.376	4.99882	7.33979	2.0
8.9228	86.3198	-0.70	0.35	0.00	15.50	7.376	4.99625	7.34153	2.0
8.9428	86.3198	-0.70	0.35	0.00	15.50	7.376	4.99369	7.34328	4.0
8.9628	86.3198	-0.70	0.35	0.00	15.50	7.376	4.99113	7.34502	0.0
8.9828	86.3198	-0.70	0.35	0.00	15.50	7.376	4.98856	7.34676	0.0
9.0028	86.3198	-0.70	0.35	0.00	15.50	7.376	4.98600	7.34850	0.0
9.0228	86.3198	-0.70	0.35	0.00	15.50	7.376	4.98343	7.35024	0.0
9.0428	86.3198	-0.70	0.35	0.00	15.50	7.376	4.98087	7.35198	0.0
9.0628	86.3198	-0.70	0.35	0.00	15.50	7.376	4.97830	7.35372	2.0
9.0828	86.3198	-0.70	0.35	0.00	15.50	7.376	4.97573	7.35546	0.0
9.1028	86.3198	-0.70	0.35	0.00	15.50	7.376	4.97317	7.35719	0.0
9.1228	86.3198	-0.70	0.35	0.00	15.50	7.376	4.97060	7.35893	2.0
9.1428	86.3198	-0.70	0.35	0.00	15.50	7.376	4.96803	7.36066	2.0
9.1628	86.3198	-0.70	0.35	0.00	15.50	7.376	4.96546	7.36240	2.0
9.1828	86.3198	-0.70	0.35	0.00	15.50	7.376	4.96289	7.36413	0.0
9.2028	86.3198	-0.70	0.35	0.00	15.50	7.376	4.96032	7.36586	6.0
9.2228	86.3198	-0.70	0.35	0.00	15.50	7.376	4.95775	7.36759	2.0
9.2428	86.3198	-0.70	0.35	0.00	15.50	7.376	4.95517	7.36932	2.0
9.2628	86.3198	-0.70	0.35	0.00	15.50	7.376	4.95260	7.37105	2.0
9.2828	86.3198	-0.70	0.35	0.00	15.50	7.376	4.95003	7.37278	0.0
9.3028	86.3198	-0.70	0.35	0.00	15.50	7.376	4.94745	7.37451	2.0
9.3228	86.3198	-0.70	0.35	0.00	15.50	7.376	4.94488	7.37624	0.0
9.3428	86.3198	-0.70	0.35	0.00	15.50	7.376	4.94230	7.37796	2.0