Folder: Thesis_XRD/Data/Projection_SiGePeak (part 3)

File: 1.5deg-2.0deg-rsm-2h30mins_11358-annealed_004_w-scans_w_064-064.dat
# filename: 1.5deg-2.0deg-rsm-2h30mins_11358-annealed_004_w-scans.dat
# reflection: (004)
# type: Projection of 0 omega (rotated)  scans
# x-axis: omega
#
# Omega	2Theta	Phi  	Chi   	X    	Y    	Z    	q_para	q_perp	Intensity
# [deg]	[deg] 	[deg]	[deg] 	[mm] 	[mm] 	[mm] 	[nm-1]	[nm-1]	[counts/s]
32.8567	67.9482	-0.24	0.31	0.00	-23.01	7.396	0.14148	7.25335	0.0
32.8767	67.9482	-0.24	0.31	0.00	-23.01	7.396	0.13894	7.25340	4.0
32.8967	67.9482	-0.24	0.31	0.00	-23.01	7.396	0.13641	7.25345	0.0
32.9167	67.9482	-0.24	0.31	0.00	-23.01	7.396	0.13388	7.25349	0.0
32.9367	67.9482	-0.24	0.31	0.00	-23.01	7.396	0.13135	7.25354	0.0
32.9567	67.9482	-0.24	0.31	0.00	-23.01	7.396	0.12882	7.25359	0.0
32.9767	67.9482	-0.24	0.31	0.00	-23.01	7.396	0.12628	7.25363	0.0
32.9967	67.9482	-0.24	0.31	0.00	-23.01	7.396	0.12375	7.25367	0.0
33.0167	67.9482	-0.24	0.31	0.00	-23.01	7.396	0.12122	7.25372	0.0
33.0367	67.9482	-0.24	0.31	0.00	-23.01	7.396	0.11869	7.25376	0.0
33.0567	67.9482	-0.24	0.31	0.00	-23.01	7.396	0.11616	7.25380	2.0
33.0767	67.9482	-0.24	0.31	0.00	-23.01	7.396	0.11362	7.25384	0.0
33.0967	67.9482	-0.24	0.31	0.00	-23.01	7.396	0.11109	7.25388	4.0
33.1167	67.9482	-0.24	0.31	0.00	-23.01	7.396	0.10856	7.25392	0.0
33.1367	67.9482	-0.24	0.31	0.00	-23.01	7.396	0.10603	7.25396	0.0
33.1567	67.9482	-0.24	0.31	0.00	-23.01	7.396	0.10349	7.25399	4.0
33.1767	67.9482	-0.24	0.31	0.00	-23.01	7.396	0.10096	7.25403	2.0
33.1967	67.9482	-0.24	0.31	0.00	-23.01	7.396	0.09843	7.25406	2.0
33.2167	67.9482	-0.24	0.31	0.00	-23.01	7.396	0.09590	7.25410	2.0
33.2367	67.9482	-0.24	0.31	0.00	-23.01	7.396	0.09337	7.25413	0.0
33.2567	67.9482	-0.24	0.31	0.00	-23.01	7.396	0.09083	7.25416	8.0
33.2767	67.9482	-0.24	0.31	0.00	-23.01	7.396	0.08830	7.25419	4.0
33.2967	67.9482	-0.24	0.31	0.00	-23.01	7.396	0.08577	7.25422	4.0
33.3167	67.9482	-0.24	0.31	0.00	-23.01	7.396	0.08324	7.25425	8.0
33.3367	67.9482	-0.24	0.31	0.00	-23.01	7.396	0.08071	7.25428	14.0
33.3567	67.9482	-0.24	0.31	0.00	-23.01	7.396	0.07817	7.25431	14.0
33.3767	67.9482	-0.24	0.31	0.00	-23.01	7.396	0.07564	7.25434	30.0
33.3967	67.9482	-0.24	0.31	0.00	-23.01	7.396	0.07311	7.25436	56.0
33.4167	67.9482	-0.24	0.31	0.00	-23.01	7.396	0.07058	7.25439	104.0
33.4367	67.9482	-0.24	0.31	0.00	-23.01	7.396	0.06804	7.25441	156.0
33.4567	67.9482	-0.24	0.31	0.00	-23.01	7.396	0.06551	7.25443	298.0
33.4767	67.9482	-0.24	0.31	0.00	-23.01	7.396	0.06298	7.25446	538.0
33.4967	67.9482	-0.24	0.31	0.00	-23.01	7.396	0.06045	7.25448	892.0
33.5167	67.9482	-0.24	0.31	0.00	-23.01	7.396	0.05791	7.25450	1358.0
33.5367	67.9482	-0.24	0.31	0.00	-23.01	7.396	0.05538	7.25452	1866.0
33.5567	67.9482	-0.24	0.31	0.00	-23.01	7.396	0.05285	7.25454	2766.0
33.5767	67.9482	-0.24	0.31	0.00	-23.01	7.396	0.05032	7.25456	3736.0
33.5967	67.9482	-0.24	0.31	0.00	-23.01	7.396	0.04779	7.25457	5164.0
33.6167	67.9482	-0.24	0.31	0.00	-23.01	7.396	0.04525	7.25459	7200.0
33.6367	67.9482	-0.24	0.31	0.00	-23.01	7.396	0.04272	7.25460	9416.0
33.6567	67.9482	-0.24	0.31	0.00	-23.01	7.396	0.04019	7.25462	11648.0
33.6767	67.9482	-0.24	0.31	0.00	-23.01	7.396	0.03766	7.25463	13546.0
33.6967	67.9482	-0.24	0.31	0.00	-23.01	7.396	0.03512	7.25465	16178.0
33.7167	67.9482	-0.24	0.31	0.00	-23.01	7.396	0.03259	7.25466	17910.0
33.7367	67.9482	-0.24	0.31	0.00	-23.01	7.396	0.03006	7.25467	18996.0
33.7567	67.9482	-0.24	0.31	0.00	-23.01	7.396	0.02753	7.25468	20772.0
33.7767	67.9482	-0.24	0.31	0.00	-23.01	7.396	0.02499	7.25469	21122.0
33.7967	67.9482	-0.24	0.31	0.00	-23.01	7.396	0.02246	7.25470	21234.0
33.8167	67.9482	-0.24	0.31	0.00	-23.01	7.396	0.01993	7.25470	19804.0
33.8367	67.9482	-0.24	0.31	0.00	-23.01	7.396	0.01740	7.25471	18272.0
33.8567	67.9482	-0.24	0.31	0.00	-23.01	7.396	0.01487	7.25472	16580.0
33.8767	67.9482	-0.24	0.31	0.00	-23.01	7.396	0.01233	7.25472	14656.0
33.8967	67.9482	-0.24	0.31	0.00	-23.01	7.396	0.00980	7.25472	11894.0
33.9167	67.9482	-0.24	0.31	0.00	-23.01	7.396	0.00727	7.25473	9448.0
33.9367	67.9482	-0.24	0.31	0.00	-23.01	7.396	0.00474	7.25473	7150.0
33.9567	67.9482	-0.24	0.31	0.00	-23.01	7.396	0.00220	7.25473	5128.0
33.9767	67.9482	-0.24	0.31	0.00	-23.01	7.396	-0.00033	7.25473	3554.0
33.9967	67.9482	-0.24	0.31	0.00	-23.01	7.396	-0.00286	7.25473	2734.0
34.0167	67.9482	-0.24	0.31	0.00	-23.01	7.396	-0.00539	7.25473	1918.0
34.0367	67.9482	-0.24	0.31	0.00	-23.01	7.396	-0.00793	7.25473	1214.0
34.0567	67.9482	-0.24	0.31	0.00	-23.01	7.396	-0.01046	7.25472	778.0
34.0767	67.9482	-0.24	0.31	0.00	-23.01	7.396	-0.01299	7.25472	512.0
34.0967	67.9482	-0.24	0.31	0.00	-23.01	7.396	-0.01552	7.25471	274.0
34.1167	67.9482	-0.24	0.31	0.00	-23.01	7.396	-0.01806	7.25471	154.0
34.1367	67.9482	-0.24	0.31	0.00	-23.01	7.396	-0.02059	7.25470	108.0
34.1567	67.9482	-0.24	0.31	0.00	-23.01	7.396	-0.02312	7.25469	86.0
34.1767	67.9482	-0.24	0.31	0.00	-23.01	7.396	-0.02565	7.25468	40.0
34.1967	67.9482	-0.24	0.31	0.00	-23.01	7.396	-0.02819	7.25468	12.0
34.2167	67.9482	-0.24	0.31	0.00	-23.01	7.396	-0.03072	7.25467	14.0
34.2367	67.9482	-0.24	0.31	0.00	-23.01	7.396	-0.03325	7.25465	2.0
34.2567	67.9482	-0.24	0.31	0.00	-23.01	7.396	-0.03578	7.25464	6.0
34.2767	67.9482	-0.24	0.31	0.00	-23.01	7.396	-0.03831	7.25463	6.0
34.2967	67.9482	-0.24	0.31	0.00	-23.01	7.396	-0.04085	7.25462	0.0
34.3167	67.9482	-0.24	0.31	0.00	-23.01	7.396	-0.04338	7.25460	0.0
34.3367	67.9482	-0.24	0.31	0.00	-23.01	7.396	-0.04591	7.25458	0.0
34.3567	67.9482	-0.24	0.31	0.00	-23.01	7.396	-0.04844	7.25457	2.0
34.3767	67.9482	-0.24	0.31	0.00	-23.01	7.396	-0.05098	7.25455	0.0
34.3967	67.9482	-0.24	0.31	0.00	-23.01	7.396	-0.05351	7.25453	2.0
34.4167	67.9482	-0.24	0.31	0.00	-23.01	7.396	-0.05604	7.25451	2.0
34.4367	67.9482	-0.24	0.31	0.00	-23.01	7.396	-0.05857	7.25449	2.0
34.4567	67.9482	-0.24	0.31	0.00	-23.01	7.396	-0.06111	7.25447	0.0
34.4767	67.9482	-0.24	0.31	0.00	-23.01	7.396	-0.06364	7.25445	0.0
34.4967	67.9482	-0.24	0.31	0.00	-23.01	7.396	-0.06617	7.25443	2.0
34.5167	67.9482	-0.24	0.31	0.00	-23.01	7.396	-0.06870	7.25440	0.0
34.5367	67.9482	-0.24	0.31	0.00	-23.01	7.396	-0.07123	7.25438	0.0
34.5567	67.9482	-0.24	0.31	0.00	-23.01	7.396	-0.07377	7.25436	2.0
34.5767	67.9482	-0.24	0.31	0.00	-23.01	7.396	-0.07630	7.25433	2.0
34.5967	67.9482	-0.24	0.31	0.00	-23.01	7.396	-0.07883	7.25430	2.0
34.6167	67.9482	-0.24	0.31	0.00	-23.01	7.396	-0.08136	7.25427	0.0
34.6367	67.9482	-0.24	0.31	0.00	-23.01	7.396	-0.08390	7.25425	0.0
34.6567	67.9482	-0.24	0.31	0.00	-23.01	7.396	-0.08643	7.25422	2.0
34.6767	67.9482	-0.24	0.31	0.00	-23.01	7.396	-0.08896	7.25418	0.0
34.6967	67.9482	-0.24	0.31	0.00	-23.01	7.396	-0.09149	7.25415	4.0
34.7167	67.9482	-0.24	0.31	0.00	-23.01	7.396	-0.09402	7.25412	0.0
34.7367	67.9482	-0.24	0.31	0.00	-23.01	7.396	-0.09656	7.25409	2.0
34.7567	67.9482	-0.24	0.31	0.00	-23.01	7.396	-0.09909	7.25405	0.0
34.7767	67.9482	-0.24	0.31	0.00	-23.01	7.396	-0.10162	7.25402	0.0
34.7967	67.9482	-0.24	0.31	0.00	-23.01	7.396	-0.10415	7.25398	0.0
34.8167	67.9482	-0.24	0.31	0.00	-23.01	7.396	-0.10669	7.25395	4.0
34.8367	67.9482	-0.24	0.31	0.00	-23.01	7.396	-0.10922	7.25391	2.0
34.8567	67.9482	-0.24	0.31	0.00	-23.01	7.396	-0.11175	7.25387	0.0

File: 1.5deg-2.0deg-rsm-2h30mins_11358-as-grown_004_w-scans_w_064-064.dat
# filename: 1.5deg-2.0deg-rsm-2h30mins_11358-as-grown_004_w-scans.dat
# reflection: (004)
# type: Projection of 0 omega (rotated)  scans
# x-axis: omega
#
# Omega	2Theta	Phi  	Chi   	X    	Y    	Z    	q_para	q_perp	Intensity
# [deg]	[deg] 	[deg]	[deg] 	[mm] 	[mm] 	[mm] 	[nm-1]	[nm-1]	[counts/s]
32.7894	67.9496	2.82	-0.23	10.00	-20.00	7.326	0.15009	7.25331	2.0
32.8094	67.9496	2.82	-0.23	10.00	-20.00	7.326	0.14755	7.25336	0.0
32.8294	67.9496	2.82	-0.23	10.00	-20.00	7.326	0.14502	7.25341	4.0
32.8494	67.9496	2.82	-0.23	10.00	-20.00	7.326	0.14249	7.25346	2.0
32.8694	67.9496	2.82	-0.23	10.00	-20.00	7.326	0.13996	7.25351	2.0
32.8894	67.9496	2.82	-0.23	10.00	-20.00	7.326	0.13743	7.25356	0.0
32.9094	67.9496	2.82	-0.23	10.00	-20.00	7.326	0.13489	7.25361	4.0
32.9294	67.9496	2.82	-0.23	10.00	-20.00	7.326	0.13236	7.25365	2.0
32.9494	67.9496	2.82	-0.23	10.00	-20.00	7.326	0.12983	7.25370	0.0
32.9694	67.9496	2.82	-0.23	10.00	-20.00	7.326	0.12730	7.25374	4.0
32.9894	67.9496	2.82	-0.23	10.00	-20.00	7.326	0.12477	7.25379	2.0
33.0094	67.9496	2.82	-0.23	10.00	-20.00	7.326	0.12223	7.25383	0.0
33.0294	67.9496	2.82	-0.23	10.00	-20.00	7.326	0.11970	7.25387	2.0
33.0494	67.9496	2.82	-0.23	10.00	-20.00	7.326	0.11717	7.25392	0.0
33.0694	67.9496	2.82	-0.23	10.00	-20.00	7.326	0.11464	7.25396	2.0
33.0894	67.9496	2.82	-0.23	10.00	-20.00	7.326	0.11211	7.25400	4.0
33.1094	67.9496	2.82	-0.23	10.00	-20.00	7.326	0.10957	7.25403	2.0
33.1294	67.9496	2.82	-0.23	10.00	-20.00	7.326	0.10704	7.25407	0.0
33.1494	67.9496	2.82	-0.23	10.00	-20.00	7.326	0.10451	7.25411	0.0
33.1694	67.9496	2.82	-0.23	10.00	-20.00	7.326	0.10198	7.25415	4.0
33.1894	67.9496	2.82	-0.23	10.00	-20.00	7.326	0.09945	7.25418	2.0
33.2094	67.9496	2.82	-0.23	10.00	-20.00	7.326	0.09691	7.25421	4.0
33.2294	67.9496	2.82	-0.23	10.00	-20.00	7.326	0.09438	7.25425	0.0
33.2494	67.9496	2.82	-0.23	10.00	-20.00	7.326	0.09185	7.25428	4.0
33.2694	67.9496	2.82	-0.23	10.00	-20.00	7.326	0.08932	7.25431	10.0
33.2894	67.9496	2.82	-0.23	10.00	-20.00	7.326	0.08678	7.25434	10.0
33.3094	67.9496	2.82	-0.23	10.00	-20.00	7.326	0.08425	7.25437	6.0
33.3294	67.9496	2.82	-0.23	10.00	-20.00	7.326	0.08172	7.25440	10.0
33.3494	67.9496	2.82	-0.23	10.00	-20.00	7.326	0.07919	7.25443	28.0
33.3694	67.9496	2.82	-0.23	10.00	-20.00	7.326	0.07666	7.25446	52.0
33.3894	67.9496	2.82	-0.23	10.00	-20.00	7.326	0.07412	7.25448	86.0
33.4094	67.9496	2.82	-0.23	10.00	-20.00	7.326	0.07159	7.25451	160.0
33.4294	67.9496	2.82	-0.23	10.00	-20.00	7.326	0.06906	7.25453	254.0
33.4494	67.9496	2.82	-0.23	10.00	-20.00	7.326	0.06653	7.25456	378.0
33.4694	67.9496	2.82	-0.23	10.00	-20.00	7.326	0.06399	7.25458	648.0
33.4894	67.9496	2.82	-0.23	10.00	-20.00	7.326	0.06146	7.25460	820.0
33.5094	67.9496	2.82	-0.23	10.00	-20.00	7.326	0.05893	7.25462	1200.0
33.5294	67.9496	2.82	-0.23	10.00	-20.00	7.326	0.05640	7.25464	1776.0
33.5494	67.9496	2.82	-0.23	10.00	-20.00	7.326	0.05386	7.25466	2460.0
33.5694	67.9496	2.82	-0.23	10.00	-20.00	7.326	0.05133	7.25468	3238.0
33.5894	67.9496	2.82	-0.23	10.00	-20.00	7.326	0.04880	7.25470	4220.0
33.6094	67.9496	2.82	-0.23	10.00	-20.00	7.326	0.04627	7.25471	5338.0
33.6294	67.9496	2.82	-0.23	10.00	-20.00	7.326	0.04373	7.25473	6612.0
33.6494	67.9496	2.82	-0.23	10.00	-20.00	7.326	0.04120	7.25474	8130.0
33.6694	67.9496	2.82	-0.23	10.00	-20.00	7.326	0.03867	7.25476	10034.0
33.6894	67.9496	2.82	-0.23	10.00	-20.00	7.326	0.03614	7.25477	11062.0
33.7094	67.9496	2.82	-0.23	10.00	-20.00	7.326	0.03361	7.25478	12410.0
33.7294	67.9496	2.82	-0.23	10.00	-20.00	7.326	0.03107	7.25480	13618.0
33.7494	67.9496	2.82	-0.23	10.00	-20.00	7.326	0.02854	7.25481	14626.0
33.7694	67.9496	2.82	-0.23	10.00	-20.00	7.326	0.02601	7.25482	15998.0
33.7894	67.9496	2.82	-0.23	10.00	-20.00	7.326	0.02348	7.25482	16508.0
33.8094	67.9496	2.82	-0.23	10.00	-20.00	7.326	0.02094	7.25483	16480.0
33.8294	67.9496	2.82	-0.23	10.00	-20.00	7.326	0.01841	7.25484	15656.0
33.8494	67.9496	2.82	-0.23	10.00	-20.00	7.326	0.01588	7.25484	14778.0
33.8694	67.9496	2.82	-0.23	10.00	-20.00	7.326	0.01335	7.25485	13750.0
33.8894	67.9496	2.82	-0.23	10.00	-20.00	7.326	0.01081	7.25485	12676.0
33.9094	67.9496	2.82	-0.23	10.00	-20.00	7.326	0.00828	7.25486	10128.0
33.9294	67.9496	2.82	-0.23	10.00	-20.00	7.326	0.00575	7.25486	8932.0
33.9494	67.9496	2.82	-0.23	10.00	-20.00	7.326	0.00322	7.25486	7734.0
33.9694	67.9496	2.82	-0.23	10.00	-20.00	7.326	0.00068	7.25486	6524.0
33.9894	67.9496	2.82	-0.23	10.00	-20.00	7.326	-0.00185	7.25486	5352.0
34.0094	67.9496	2.82	-0.23	10.00	-20.00	7.326	-0.00438	7.25486	4470.0
34.0294	67.9496	2.82	-0.23	10.00	-20.00	7.326	-0.00691	7.25486	3262.0
34.0494	67.9496	2.82	-0.23	10.00	-20.00	7.326	-0.00945	7.25486	2404.0
34.0694	67.9496	2.82	-0.23	10.00	-20.00	7.326	-0.01198	7.25485	1852.0
34.0894	67.9496	2.82	-0.23	10.00	-20.00	7.326	-0.01451	7.25485	1484.0
34.1094	67.9496	2.82	-0.23	10.00	-20.00	7.326	-0.01704	7.25484	1110.0
34.1294	67.9496	2.82	-0.23	10.00	-20.00	7.326	-0.01958	7.25484	734.0
34.1494	67.9496	2.82	-0.23	10.00	-20.00	7.326	-0.02211	7.25483	502.0
34.1694	67.9496	2.82	-0.23	10.00	-20.00	7.326	-0.02464	7.25482	348.0
34.1894	67.9496	2.82	-0.23	10.00	-20.00	7.326	-0.02717	7.25481	206.0
34.2094	67.9496	2.82	-0.23	10.00	-20.00	7.326	-0.02971	7.25480	118.0
34.2294	67.9496	2.82	-0.23	10.00	-20.00	7.326	-0.03224	7.25479	66.0
34.2494	67.9496	2.82	-0.23	10.00	-20.00	7.326	-0.03477	7.25478	38.0
34.2694	67.9496	2.82	-0.23	10.00	-20.00	7.326	-0.03730	7.25477	26.0
34.2894	67.9496	2.82	-0.23	10.00	-20.00	7.326	-0.03983	7.25475	10.0
34.3094	67.9496	2.82	-0.23	10.00	-20.00	7.326	-0.04237	7.25474	4.0
34.3294	67.9496	2.82	-0.23	10.00	-20.00	7.326	-0.04490	7.25472	8.0
34.3494	67.9496	2.82	-0.23	10.00	-20.00	7.326	-0.04743	7.25471	2.0
34.3694	67.9496	2.82	-0.23	10.00	-20.00	7.326	-0.04996	7.25469	4.0
34.3894	67.9496	2.82	-0.23	10.00	-20.00	7.326	-0.05250	7.25467	0.0
34.4094	67.9496	2.82	-0.23	10.00	-20.00	7.326	-0.05503	7.25465	2.0
34.4294	67.9496	2.82	-0.23	10.00	-20.00	7.326	-0.05756	7.25463	0.0
34.4494	67.9496	2.82	-0.23	10.00	-20.00	7.326	-0.06009	7.25461	2.0
34.4694	67.9496	2.82	-0.23	10.00	-20.00	7.326	-0.06263	7.25459	2.0
34.4894	67.9496	2.82	-0.23	10.00	-20.00	7.326	-0.06516	7.25457	0.0
34.5094	67.9496	2.82	-0.23	10.00	-20.00	7.326	-0.06769	7.25455	2.0
34.5294	67.9496	2.82	-0.23	10.00	-20.00	7.326	-0.07022	7.25452	2.0
34.5494	67.9496	2.82	-0.23	10.00	-20.00	7.326	-0.07276	7.25450	0.0
34.5694	67.9496	2.82	-0.23	10.00	-20.00	7.326	-0.07529	7.25447	2.0
34.5894	67.9496	2.82	-0.23	10.00	-20.00	7.326	-0.07782	7.25444	0.0
34.6094	67.9496	2.82	-0.23	10.00	-20.00	7.326	-0.08035	7.25442	2.0
34.6294	67.9496	2.82	-0.23	10.00	-20.00	7.326	-0.08288	7.25439	0.0
34.6494	67.9496	2.82	-0.23	10.00	-20.00	7.326	-0.08542	7.25436	0.0
34.6694	67.9496	2.82	-0.23	10.00	-20.00	7.326	-0.08795	7.25433	4.0
34.6894	67.9496	2.82	-0.23	10.00	-20.00	7.326	-0.09048	7.25430	0.0
34.7094	67.9496	2.82	-0.23	10.00	-20.00	7.326	-0.09301	7.25427	2.0
34.7294	67.9496	2.82	-0.23	10.00	-20.00	7.326	-0.09555	7.25423	0.0
34.7494	67.9496	2.82	-0.23	10.00	-20.00	7.326	-0.09808	7.25420	4.0
34.7694	67.9496	2.82	-0.23	10.00	-20.00	7.326	-0.10061	7.25416	4.0
34.7894	67.9496	2.82	-0.23	10.00	-20.00	7.326	-0.10314	7.25413	2.0

File: 1.5deg-2.0deg-rsm-2h30mins_11371-annealed_004_w-scans_w_064-064.dat
# filename: 1.5deg-2.0deg-rsm-2h30mins_11371-annealed_004_w-scans.dat
# reflection: (004)
# type: Projection of 0 omega (rotated)  scans
# x-axis: omega
#
# Omega	2Theta	Phi  	Chi   	X    	Y    	Z    	q_para	q_perp	Intensity
# [deg]	[deg] 	[deg]	[deg] 	[mm] 	[mm] 	[mm] 	[nm-1]	[nm-1]	[counts/s]
33.1542	67.9394	-0.92	-0.92	0.00	17.53	7.303	0.10324	7.25317	2.0
33.1742	67.9394	-0.92	-0.92	0.00	17.53	7.303	0.10071	7.25320	0.0
33.1942	67.9394	-0.92	-0.92	0.00	17.53	7.303	0.09818	7.25324	0.0
33.2142	67.9394	-0.92	-0.92	0.00	17.53	7.303	0.09565	7.25327	0.0
33.2342	67.9394	-0.92	-0.92	0.00	17.53	7.303	0.09312	7.25331	0.0
33.2542	67.9394	-0.92	-0.92	0.00	17.53	7.303	0.09058	7.25334	2.0
33.2742	67.9394	-0.92	-0.92	0.00	17.53	7.303	0.08805	7.25337	0.0
33.2942	67.9394	-0.92	-0.92	0.00	17.53	7.303	0.08552	7.25340	0.0
33.3142	67.9394	-0.92	-0.92	0.00	17.53	7.303	0.08299	7.25343	0.0
33.3342	67.9394	-0.92	-0.92	0.00	17.53	7.303	0.08046	7.25346	0.0
33.3542	67.9394	-0.92	-0.92	0.00	17.53	7.303	0.07792	7.25348	4.0
33.3742	67.9394	-0.92	-0.92	0.00	17.53	7.303	0.07539	7.25351	2.0
33.3942	67.9394	-0.92	-0.92	0.00	17.53	7.303	0.07286	7.25354	2.0
33.4142	67.9394	-0.92	-0.92	0.00	17.53	7.303	0.07033	7.25356	4.0
33.4342	67.9394	-0.92	-0.92	0.00	17.53	7.303	0.06780	7.25359	4.0
33.4542	67.9394	-0.92	-0.92	0.00	17.53	7.303	0.06526	7.25361	0.0
33.4742	67.9394	-0.92	-0.92	0.00	17.53	7.303	0.06273	7.25363	4.0
33.4942	67.9394	-0.92	-0.92	0.00	17.53	7.303	0.06020	7.25365	6.0
33.5142	67.9394	-0.92	-0.92	0.00	17.53	7.303	0.05767	7.25367	0.0
33.5342	67.9394	-0.92	-0.92	0.00	17.53	7.303	0.05514	7.25369	2.0
33.5542	67.9394	-0.92	-0.92	0.00	17.53	7.303	0.05260	7.25371	0.0
33.5742	67.9394	-0.92	-0.92	0.00	17.53	7.303	0.05007	7.25373	2.0
33.5942	67.9394	-0.92	-0.92	0.00	17.53	7.303	0.04754	7.25375	2.0
33.6142	67.9394	-0.92	-0.92	0.00	17.53	7.303	0.04501	7.25376	0.0
33.6342	67.9394	-0.92	-0.92	0.00	17.53	7.303	0.04248	7.25378	2.0
33.6542	67.9394	-0.92	-0.92	0.00	17.53	7.303	0.03994	7.25379	6.0
33.6742	67.9394	-0.92	-0.92	0.00	17.53	7.303	0.03741	7.25381	4.0
33.6942	67.9394	-0.92	-0.92	0.00	17.53	7.303	0.03488	7.25382	14.0
33.7142	67.9394	-0.92	-0.92	0.00	17.53	7.303	0.03235	7.25383	12.0
33.7342	67.9394	-0.92	-0.92	0.00	17.53	7.303	0.02982	7.25384	24.0
33.7542	67.9394	-0.92	-0.92	0.00	17.53	7.303	0.02728	7.25385	68.0
33.7742	67.9394	-0.92	-0.92	0.00	17.53	7.303	0.02475	7.25386	156.0
33.7942	67.9394	-0.92	-0.92	0.00	17.53	7.303	0.02222	7.25387	220.0
33.8142	67.9394	-0.92	-0.92	0.00	17.53	7.303	0.01969	7.25388	448.0
33.8342	67.9394	-0.92	-0.92	0.00	17.53	7.303	0.01715	7.25388	756.0
33.8542	67.9394	-0.92	-0.92	0.00	17.53	7.303	0.01462	7.25389	1306.0
33.8742	67.9394	-0.92	-0.92	0.00	17.53	7.303	0.01209	7.25389	1920.0
33.8942	67.9394	-0.92	-0.92	0.00	17.53	7.303	0.00956	7.25390	3002.0
33.9142	67.9394	-0.92	-0.92	0.00	17.53	7.303	0.00703	7.25390	4140.0
33.9342	67.9394	-0.92	-0.92	0.00	17.53	7.303	0.00449	7.25390	5772.0
33.9542	67.9394	-0.92	-0.92	0.00	17.53	7.303	0.00196	7.25390	7614.0
33.9742	67.9394	-0.92	-0.92	0.00	17.53	7.303	-0.00057	7.25390	9432.0
33.9942	67.9394	-0.92	-0.92	0.00	17.53	7.303	-0.00310	7.25390	11546.0
34.0142	67.9394	-0.92	-0.92	0.00	17.53	7.303	-0.00563	7.25390	13942.0
34.0342	67.9394	-0.92	-0.92	0.00	17.53	7.303	-0.00817	7.25390	15524.0
34.0542	67.9394	-0.92	-0.92	0.00	17.53	7.303	-0.01070	7.25390	16748.0
34.0742	67.9394	-0.92	-0.92	0.00	17.53	7.303	-0.01323	7.25389	17266.0
34.0942	67.9394	-0.92	-0.92	0.00	17.53	7.303	-0.01576	7.25389	17044.0
34.1142	67.9394	-0.92	-0.92	0.00	17.53	7.303	-0.01829	7.25388	16310.0
34.1342	67.9394	-0.92	-0.92	0.00	17.53	7.303	-0.02083	7.25387	15550.0
34.1542	67.9394	-0.92	-0.92	0.00	17.53	7.303	-0.02336	7.25387	14046.0
34.1742	67.9394	-0.92	-0.92	0.00	17.53	7.303	-0.02589	7.25386	12102.0
34.1942	67.9394	-0.92	-0.92	0.00	17.53	7.303	-0.02842	7.25385	10486.0
34.2142	67.9394	-0.92	-0.92	0.00	17.53	7.303	-0.03095	7.25384	8472.0
34.2342	67.9394	-0.92	-0.92	0.00	17.53	7.303	-0.03349	7.25383	6770.0
34.2542	67.9394	-0.92	-0.92	0.00	17.53	7.303	-0.03602	7.25381	5376.0
34.2742	67.9394	-0.92	-0.92	0.00	17.53	7.303	-0.03855	7.25380	4200.0
34.2942	67.9394	-0.92	-0.92	0.00	17.53	7.303	-0.04108	7.25379	2906.0
34.3142	67.9394	-0.92	-0.92	0.00	17.53	7.303	-0.04361	7.25377	2196.0
34.3342	67.9394	-0.92	-0.92	0.00	17.53	7.303	-0.04615	7.25376	1450.0
34.3542	67.9394	-0.92	-0.92	0.00	17.53	7.303	-0.04868	7.25374	1028.0
34.3742	67.9394	-0.92	-0.92	0.00	17.53	7.303	-0.05121	7.25372	782.0
34.3942	67.9394	-0.92	-0.92	0.00	17.53	7.303	-0.05374	7.25370	496.0
34.4142	67.9394	-0.92	-0.92	0.00	17.53	7.303	-0.05628	7.25369	320.0
34.4342	67.9394	-0.92	-0.92	0.00	17.53	7.303	-0.05881	7.25367	182.0
34.4542	67.9394	-0.92	-0.92	0.00	17.53	7.303	-0.06134	7.25364	136.0
34.4742	67.9394	-0.92	-0.92	0.00	17.53	7.303	-0.06387	7.25362	58.0
34.4942	67.9394	-0.92	-0.92	0.00	17.53	7.303	-0.06640	7.25360	36.0
34.5142	67.9394	-0.92	-0.92	0.00	17.53	7.303	-0.06894	7.25358	28.0
34.5342	67.9394	-0.92	-0.92	0.00	17.53	7.303	-0.07147	7.25355	12.0
34.5542	67.9394	-0.92	-0.92	0.00	17.53	7.303	-0.07400	7.25353	6.0
34.5742	67.9394	-0.92	-0.92	0.00	17.53	7.303	-0.07653	7.25350	2.0
34.5942	67.9394	-0.92	-0.92	0.00	17.53	7.303	-0.07906	7.25347	4.0
34.6142	67.9394	-0.92	-0.92	0.00	17.53	7.303	-0.08159	7.25344	2.0
34.6342	67.9394	-0.92	-0.92	0.00	17.53	7.303	-0.08413	7.25342	4.0
34.6542	67.9394	-0.92	-0.92	0.00	17.53	7.303	-0.08666	7.25339	6.0
34.6742	67.9394	-0.92	-0.92	0.00	17.53	7.303	-0.08919	7.25336	2.0
34.6942	67.9394	-0.92	-0.92	0.00	17.53	7.303	-0.09172	7.25332	0.0
34.7142	67.9394	-0.92	-0.92	0.00	17.53	7.303	-0.09425	7.25329	0.0
34.7342	67.9394	-0.92	-0.92	0.00	17.53	7.303	-0.09679	7.25326	4.0
34.7542	67.9394	-0.92	-0.92	0.00	17.53	7.303	-0.09932	7.25322	6.0
34.7742	67.9394	-0.92	-0.92	0.00	17.53	7.303	-0.10185	7.25319	0.0
34.7942	67.9394	-0.92	-0.92	0.00	17.53	7.303	-0.10438	7.25315	2.0
34.8142	67.9394	-0.92	-0.92	0.00	17.53	7.303	-0.10691	7.25312	2.0
34.8342	67.9394	-0.92	-0.92	0.00	17.53	7.303	-0.10945	7.25308	2.0
34.8542	67.9394	-0.92	-0.92	0.00	17.53	7.303	-0.11198	7.25304	2.0
34.8742	67.9394	-0.92	-0.92	0.00	17.53	7.303	-0.11451	7.25300	0.0
34.8942	67.9394	-0.92	-0.92	0.00	17.53	7.303	-0.11704	7.25296	0.0
34.9142	67.9394	-0.92	-0.92	0.00	17.53	7.303	-0.11957	7.25292	0.0
34.9342	67.9394	-0.92	-0.92	0.00	17.53	7.303	-0.12210	7.25288	0.0
34.9542	67.9394	-0.92	-0.92	0.00	17.53	7.303	-0.12464	7.25283	0.0
34.9742	67.9394	-0.92	-0.92	0.00	17.53	7.303	-0.12717	7.25279	2.0
34.9942	67.9394	-0.92	-0.92	0.00	17.53	7.303	-0.12970	7.25274	6.0
35.0142	67.9394	-0.92	-0.92	0.00	17.53	7.303	-0.13223	7.25270	2.0
35.0342	67.9394	-0.92	-0.92	0.00	17.53	7.303	-0.13476	7.25265	0.0
35.0542	67.9394	-0.92	-0.92	0.00	17.53	7.303	-0.13729	7.25260	0.0
35.0742	67.9394	-0.92	-0.92	0.00	17.53	7.303	-0.13983	7.25256	2.0
35.0942	67.9394	-0.92	-0.92	0.00	17.53	7.303	-0.14236	7.25251	0.0
35.1142	67.9394	-0.92	-0.92	0.00	17.53	7.303	-0.14489	7.25246	0.0
35.1342	67.9394	-0.92	-0.92	0.00	17.53	7.303	-0.14742	7.25241	2.0
35.1542	67.9394	-0.92	-0.92	0.00	17.53	7.303	-0.14995	7.25235	0.0