Folder: Thesis_XRD/Data/Projection_SiGePeak (part 4)

File: 1.5deg-2.0deg-rsm-2h30mins_11371-as-grown_004_w-scans_w_037-037.dat
# filename: 1.5deg-2.0deg-rsm-2h30mins_11371-as-grown_004_w-scans.dat
# reflection: (004)
# type: Projection of 0 omega (rotated)  scans
# x-axis: omega
#
# Omega	2Theta	Phi  	Chi   	X    	Y    	Z    	q_para	q_perp	Intensity
# [deg]	[deg] 	[deg]	[deg] 	[mm] 	[mm] 	[mm] 	[nm-1]	[nm-1]	[counts/s]
33.0827	67.9140	0.79	0.03	5.00	5.00	7.412	0.11065	7.25067	2.0
33.1027	67.9140	0.79	0.03	5.00	5.00	7.412	0.10812	7.25071	2.0
33.1227	67.9140	0.79	0.03	5.00	5.00	7.412	0.10559	7.25075	0.0
33.1427	67.9140	0.79	0.03	5.00	5.00	7.412	0.10306	7.25078	2.0
33.1627	67.9140	0.79	0.03	5.00	5.00	7.412	0.10053	7.25082	2.0
33.1827	67.9140	0.79	0.03	5.00	5.00	7.412	0.09799	7.25085	0.0
33.2027	67.9140	0.79	0.03	5.00	5.00	7.412	0.09546	7.25089	2.0
33.2227	67.9140	0.79	0.03	5.00	5.00	7.412	0.09293	7.25092	4.0
33.2427	67.9140	0.79	0.03	5.00	5.00	7.412	0.09040	7.25095	0.0
33.2627	67.9140	0.79	0.03	5.00	5.00	7.412	0.08787	7.25098	6.0
33.2827	67.9140	0.79	0.03	5.00	5.00	7.412	0.08534	7.25101	0.0
33.3027	67.9140	0.79	0.03	5.00	5.00	7.412	0.08281	7.25104	0.0
33.3227	67.9140	0.79	0.03	5.00	5.00	7.412	0.08028	7.25107	2.0
33.3427	67.9140	0.79	0.03	5.00	5.00	7.412	0.07775	7.25110	4.0
33.3627	67.9140	0.79	0.03	5.00	5.00	7.412	0.07521	7.25113	4.0
33.3827	67.9140	0.79	0.03	5.00	5.00	7.412	0.07268	7.25115	6.0
33.4027	67.9140	0.79	0.03	5.00	5.00	7.412	0.07015	7.25118	4.0
33.4227	67.9140	0.79	0.03	5.00	5.00	7.412	0.06762	7.25120	2.0
33.4427	67.9140	0.79	0.03	5.00	5.00	7.412	0.06509	7.25122	0.0
33.4627	67.9140	0.79	0.03	5.00	5.00	7.412	0.06256	7.25125	0.0
33.4827	67.9140	0.79	0.03	5.00	5.00	7.412	0.06003	7.25127	4.0
33.5027	67.9140	0.79	0.03	5.00	5.00	7.412	0.05750	7.25129	8.0
33.5227	67.9140	0.79	0.03	5.00	5.00	7.412	0.05497	7.25131	0.0
33.5427	67.9140	0.79	0.03	5.00	5.00	7.412	0.05243	7.25133	4.0
33.5627	67.9140	0.79	0.03	5.00	5.00	7.412	0.04990	7.25135	2.0
33.5827	67.9140	0.79	0.03	5.00	5.00	7.412	0.04737	7.25136	2.0
33.6027	67.9140	0.79	0.03	5.00	5.00	7.412	0.04484	7.25138	6.0
33.6227	67.9140	0.79	0.03	5.00	5.00	7.412	0.04231	7.25139	10.0
33.6427	67.9140	0.79	0.03	5.00	5.00	7.412	0.03978	7.25141	14.0
33.6627	67.9140	0.79	0.03	5.00	5.00	7.412	0.03725	7.25142	44.0
33.6827	67.9140	0.79	0.03	5.00	5.00	7.412	0.03472	7.25143	80.0
33.7027	67.9140	0.79	0.03	5.00	5.00	7.412	0.03218	7.25145	124.0
33.7227	67.9140	0.79	0.03	5.00	5.00	7.412	0.02965	7.25146	194.0
33.7427	67.9140	0.79	0.03	5.00	5.00	7.412	0.02712	7.25147	334.0
33.7627	67.9140	0.79	0.03	5.00	5.00	7.412	0.02459	7.25148	660.0
33.7827	67.9140	0.79	0.03	5.00	5.00	7.412	0.02206	7.25148	944.0
33.8027	67.9140	0.79	0.03	5.00	5.00	7.412	0.01953	7.25149	1432.0
33.8227	67.9140	0.79	0.03	5.00	5.00	7.412	0.01700	7.25150	2096.0
33.8427	67.9140	0.79	0.03	5.00	5.00	7.412	0.01447	7.25150	3076.0
33.8627	67.9140	0.79	0.03	5.00	5.00	7.412	0.01193	7.25151	4538.0
33.8827	67.9140	0.79	0.03	5.00	5.00	7.412	0.00940	7.25151	5914.0
33.9027	67.9140	0.79	0.03	5.00	5.00	7.412	0.00687	7.25151	7584.0
33.9227	67.9140	0.79	0.03	5.00	5.00	7.412	0.00434	7.25152	9366.0
33.9427	67.9140	0.79	0.03	5.00	5.00	7.412	0.00181	7.25152	11480.0
33.9627	67.9140	0.79	0.03	5.00	5.00	7.412	-0.00072	7.25152	13342.0
33.9827	67.9140	0.79	0.03	5.00	5.00	7.412	-0.00325	7.25152	14786.0
34.0027	67.9140	0.79	0.03	5.00	5.00	7.412	-0.00578	7.25151	16506.0
34.0227	67.9140	0.79	0.03	5.00	5.00	7.412	-0.00832	7.25151	17848.0
34.0427	67.9140	0.79	0.03	5.00	5.00	7.412	-0.01085	7.25151	18678.0
34.0627	67.9140	0.79	0.03	5.00	5.00	7.412	-0.01338	7.25150	19050.0
34.0827	67.9140	0.79	0.03	5.00	5.00	7.412	-0.01591	7.25150	19540.0
34.1027	67.9140	0.79	0.03	5.00	5.00	7.412	-0.01844	7.25149	18502.0
34.1227	67.9140	0.79	0.03	5.00	5.00	7.412	-0.02097	7.25149	17002.0
34.1427	67.9140	0.79	0.03	5.00	5.00	7.412	-0.02350	7.25148	15388.0
34.1627	67.9140	0.79	0.03	5.00	5.00	7.412	-0.02603	7.25147	13488.0
34.1827	67.9140	0.79	0.03	5.00	5.00	7.412	-0.02857	7.25146	11684.0
34.2027	67.9140	0.79	0.03	5.00	5.00	7.412	-0.03110	7.25145	9886.0
34.2227	67.9140	0.79	0.03	5.00	5.00	7.412	-0.03363	7.25144	8184.0
34.2427	67.9140	0.79	0.03	5.00	5.00	7.412	-0.03616	7.25143	6552.0
34.2627	67.9140	0.79	0.03	5.00	5.00	7.412	-0.03869	7.25141	5170.0
34.2827	67.9140	0.79	0.03	5.00	5.00	7.412	-0.04122	7.25140	3664.0
34.3027	67.9140	0.79	0.03	5.00	5.00	7.412	-0.04375	7.25138	2830.0
34.3227	67.9140	0.79	0.03	5.00	5.00	7.412	-0.04628	7.25137	1916.0
34.3427	67.9140	0.79	0.03	5.00	5.00	7.412	-0.04881	7.25135	1340.0
34.3627	67.9140	0.79	0.03	5.00	5.00	7.412	-0.05135	7.25134	992.0
34.3827	67.9140	0.79	0.03	5.00	5.00	7.412	-0.05388	7.25132	606.0
34.4027	67.9140	0.79	0.03	5.00	5.00	7.412	-0.05641	7.25130	346.0
34.4227	67.9140	0.79	0.03	5.00	5.00	7.412	-0.05894	7.25128	204.0
34.4427	67.9140	0.79	0.03	5.00	5.00	7.412	-0.06147	7.25126	124.0
34.4627	67.9140	0.79	0.03	5.00	5.00	7.412	-0.06400	7.25123	46.0
34.4827	67.9140	0.79	0.03	5.00	5.00	7.412	-0.06653	7.25121	20.0
34.5027	67.9140	0.79	0.03	5.00	5.00	7.412	-0.06906	7.25119	20.0
34.5227	67.9140	0.79	0.03	5.00	5.00	7.412	-0.07160	7.25116	8.0
34.5427	67.9140	0.79	0.03	5.00	5.00	7.412	-0.07413	7.25114	8.0
34.5627	67.9140	0.79	0.03	5.00	5.00	7.412	-0.07666	7.25111	6.0
34.5827	67.9140	0.79	0.03	5.00	5.00	7.412	-0.07919	7.25108	0.0
34.6027	67.9140	0.79	0.03	5.00	5.00	7.412	-0.08172	7.25106	4.0
34.6227	67.9140	0.79	0.03	5.00	5.00	7.412	-0.08425	7.25103	2.0
34.6427	67.9140	0.79	0.03	5.00	5.00	7.412	-0.08678	7.25100	4.0
34.6627	67.9140	0.79	0.03	5.00	5.00	7.412	-0.08931	7.25097	2.0
34.6827	67.9140	0.79	0.03	5.00	5.00	7.412	-0.09184	7.25094	2.0
34.7027	67.9140	0.79	0.03	5.00	5.00	7.412	-0.09438	7.25090	2.0
34.7227	67.9140	0.79	0.03	5.00	5.00	7.412	-0.09691	7.25087	4.0
34.7427	67.9140	0.79	0.03	5.00	5.00	7.412	-0.09944	7.25083	4.0
34.7627	67.9140	0.79	0.03	5.00	5.00	7.412	-0.10197	7.25080	4.0
34.7827	67.9140	0.79	0.03	5.00	5.00	7.412	-0.10450	7.25076	2.0
34.8027	67.9140	0.79	0.03	5.00	5.00	7.412	-0.10703	7.25073	2.0
34.8227	67.9140	0.79	0.03	5.00	5.00	7.412	-0.10956	7.25069	0.0
34.8427	67.9140	0.79	0.03	5.00	5.00	7.412	-0.11209	7.25065	0.0
34.8627	67.9140	0.79	0.03	5.00	5.00	7.412	-0.11462	7.25061	4.0
34.8827	67.9140	0.79	0.03	5.00	5.00	7.412	-0.11715	7.25057	0.0
34.9027	67.9140	0.79	0.03	5.00	5.00	7.412	-0.11969	7.25053	2.0
34.9227	67.9140	0.79	0.03	5.00	5.00	7.412	-0.12222	7.25049	2.0
34.9427	67.9140	0.79	0.03	5.00	5.00	7.412	-0.12475	7.25044	2.0
34.9627	67.9140	0.79	0.03	5.00	5.00	7.412	-0.12728	7.25040	2.0
34.9827	67.9140	0.79	0.03	5.00	5.00	7.412	-0.12981	7.25035	0.0
35.0027	67.9140	0.79	0.03	5.00	5.00	7.412	-0.13234	7.25031	0.0
35.0227	67.9140	0.79	0.03	5.00	5.00	7.412	-0.13487	7.25026	4.0
35.0427	67.9140	0.79	0.03	5.00	5.00	7.412	-0.13740	7.25021	0.0
35.0627	67.9140	0.79	0.03	5.00	5.00	7.412	-0.13993	7.25017	0.0
35.0827	67.9140	0.79	0.03	5.00	5.00	7.412	-0.14246	7.25012	0.0

File: 2.0deg-2.0deg-rsm-3h10mins_11352-annealed_224_w-scans_w_065-065.dat
# filename: 2.0deg-2.0deg-rsm-3h10mins_11352-annealed_224_w-scans.dat
# reflection: (004)
# type: Projection of 0 omega (rotated)  scans
# x-axis: omega
#
# Omega	2Theta	Phi  	Chi   	X    	Y    	Z    	q_para	q_perp	Intensity
# [deg]	[deg] 	[deg]	[deg] 	[mm] 	[mm] 	[mm] 	[nm-1]	[nm-1]	[counts/s]
7.2075	86.3512	-1.19	0.12	0.00	17.51	7.290	5.21726	7.18936	0.0
7.2275	86.3512	-1.19	0.12	0.00	17.51	7.290	5.21475	7.19118	0.0
7.2475	86.3512	-1.19	0.12	0.00	17.51	7.290	5.21224	7.19300	2.0
7.2675	86.3512	-1.19	0.12	0.00	17.51	7.290	5.20973	7.19482	2.0
7.2875	86.3512	-1.19	0.12	0.00	17.51	7.290	5.20722	7.19664	0.0
7.3075	86.3512	-1.19	0.12	0.00	17.51	7.290	5.20471	7.19846	0.0
7.3275	86.3512	-1.19	0.12	0.00	17.51	7.290	5.20220	7.20027	0.0
7.3475	86.3512	-1.19	0.12	0.00	17.51	7.290	5.19968	7.20209	4.0
7.3675	86.3512	-1.19	0.12	0.00	17.51	7.290	5.19717	7.20390	2.0
7.3875	86.3512	-1.19	0.12	0.00	17.51	7.290	5.19465	7.20572	2.0
7.4075	86.3512	-1.19	0.12	0.00	17.51	7.290	5.19214	7.20753	0.0
7.4275	86.3512	-1.19	0.12	0.00	17.51	7.290	5.18962	7.20934	2.0
7.4475	86.3512	-1.19	0.12	0.00	17.51	7.290	5.18710	7.21115	4.0
7.4675	86.3512	-1.19	0.12	0.00	17.51	7.290	5.18459	7.21296	2.0
7.4875	86.3512	-1.19	0.12	0.00	17.51	7.290	5.18207	7.21477	2.0
7.5075	86.3512	-1.19	0.12	0.00	17.51	7.290	5.17955	7.21658	4.0
7.5275	86.3512	-1.19	0.12	0.00	17.51	7.290	5.17703	7.21839	0.0
7.5475	86.3512	-1.19	0.12	0.00	17.51	7.290	5.17451	7.22019	0.0
7.5675	86.3512	-1.19	0.12	0.00	17.51	7.290	5.17199	7.22200	0.0
7.5875	86.3512	-1.19	0.12	0.00	17.51	7.290	5.16947	7.22381	0.0
7.6075	86.3512	-1.19	0.12	0.00	17.51	7.290	5.16695	7.22561	2.0
7.6275	86.3512	-1.19	0.12	0.00	17.51	7.290	5.16442	7.22741	4.0
7.6475	86.3512	-1.19	0.12	0.00	17.51	7.290	5.16190	7.22922	2.0
7.6675	86.3512	-1.19	0.12	0.00	17.51	7.290	5.15938	7.23102	2.0
7.6875	86.3512	-1.19	0.12	0.00	17.51	7.290	5.15685	7.23282	4.0
7.7075	86.3512	-1.19	0.12	0.00	17.51	7.290	5.15433	7.23462	4.0
7.7275	86.3512	-1.19	0.12	0.00	17.51	7.290	5.15180	7.23642	6.0
7.7475	86.3512	-1.19	0.12	0.00	17.51	7.290	5.14928	7.23821	6.0
7.7675	86.3512	-1.19	0.12	0.00	17.51	7.290	5.14675	7.24001	2.0
7.7875	86.3512	-1.19	0.12	0.00	17.51	7.290	5.14422	7.24181	12.0
7.8075	86.3512	-1.19	0.12	0.00	17.51	7.290	5.14169	7.24360	12.0
7.8275	86.3512	-1.19	0.12	0.00	17.51	7.290	5.13916	7.24540	32.0
7.8475	86.3512	-1.19	0.12	0.00	17.51	7.290	5.13663	7.24719	36.0
7.8675	86.3512	-1.19	0.12	0.00	17.51	7.290	5.13410	7.24898	58.0
7.8875	86.3512	-1.19	0.12	0.00	17.51	7.290	5.13157	7.25077	96.0
7.9075	86.3512	-1.19	0.12	0.00	17.51	7.290	5.12904	7.25256	184.0
7.9275	86.3512	-1.19	0.12	0.00	17.51	7.290	5.12651	7.25435	318.0
7.9475	86.3512	-1.19	0.12	0.00	17.51	7.290	5.12398	7.25614	564.0
7.9675	86.3512	-1.19	0.12	0.00	17.51	7.290	5.12144	7.25793	832.0
7.9875	86.3512	-1.19	0.12	0.00	17.51	7.290	5.11891	7.25972	1352.0
8.0075	86.3512	-1.19	0.12	0.00	17.51	7.290	5.11638	7.26151	2128.0
8.0275	86.3512	-1.19	0.12	0.00	17.51	7.290	5.11384	7.26329	3452.0
8.0475	86.3512	-1.19	0.12	0.00	17.51	7.290	5.11131	7.26508	5318.0
8.0675	86.3512	-1.19	0.12	0.00	17.51	7.290	5.10877	7.26686	7724.0
8.0875	86.3512	-1.19	0.12	0.00	17.51	7.290	5.10623	7.26864	10284.0
8.1075	86.3512	-1.19	0.12	0.00	17.51	7.290	5.10369	7.27042	13752.0
8.1275	86.3512	-1.19	0.12	0.00	17.51	7.290	5.10116	7.27221	16788.0
8.1475	86.3512	-1.19	0.12	0.00	17.51	7.290	5.09862	7.27399	19762.0
8.1675	86.3512	-1.19	0.12	0.00	17.51	7.290	5.09608	7.27576	22078.0
8.1875	86.3512	-1.19	0.12	0.00	17.51	7.290	5.09354	7.27754	24594.0
8.2075	86.3512	-1.19	0.12	0.00	17.51	7.290	5.09100	7.27932	24646.0
8.2275	86.3512	-1.19	0.12	0.00	17.51	7.290	5.08846	7.28110	25160.0
8.2475	86.3512	-1.19	0.12	0.00	17.51	7.290	5.08591	7.28287	24044.0
8.2675	86.3512	-1.19	0.12	0.00	17.51	7.290	5.08337	7.28465	20958.0
8.2875	86.3512	-1.19	0.12	0.00	17.51	7.290	5.08083	7.28642	18246.0
8.3075	86.3512	-1.19	0.12	0.00	17.51	7.290	5.07829	7.28819	14956.0
8.3275	86.3512	-1.19	0.12	0.00	17.51	7.290	5.07574	7.28997	12008.0
8.3475	86.3512	-1.19	0.12	0.00	17.51	7.290	5.07320	7.29174	9268.0
8.3675	86.3512	-1.19	0.12	0.00	17.51	7.290	5.07065	7.29351	6626.0
8.3875	86.3512	-1.19	0.12	0.00	17.51	7.290	5.06810	7.29528	4634.0
8.4075	86.3512	-1.19	0.12	0.00	17.51	7.290	5.06556	7.29705	3134.0
8.4275	86.3512	-1.19	0.12	0.00	17.51	7.290	5.06301	7.29881	2206.0
8.4475	86.3512	-1.19	0.12	0.00	17.51	7.290	5.06046	7.30058	1362.0
8.4675	86.3512	-1.19	0.12	0.00	17.51	7.290	5.05791	7.30235	946.0
8.4875	86.3512	-1.19	0.12	0.00	17.51	7.290	5.05536	7.30411	520.0
8.5075	86.3512	-1.19	0.12	0.00	17.51	7.290	5.05281	7.30588	284.0
8.5275	86.3512	-1.19	0.12	0.00	17.51	7.290	5.05026	7.30764	174.0
8.5475	86.3512	-1.19	0.12	0.00	17.51	7.290	5.04771	7.30940	110.0
8.5675	86.3512	-1.19	0.12	0.00	17.51	7.290	5.04516	7.31116	32.0
8.5875	86.3512	-1.19	0.12	0.00	17.51	7.290	5.04261	7.31293	16.0
8.6075	86.3512	-1.19	0.12	0.00	17.51	7.290	5.04005	7.31468	8.0
8.6275	86.3512	-1.19	0.12	0.00	17.51	7.290	5.03750	7.31644	6.0
8.6475	86.3512	-1.19	0.12	0.00	17.51	7.290	5.03495	7.31820	4.0
8.6675	86.3512	-1.19	0.12	0.00	17.51	7.290	5.03239	7.31996	2.0
8.6875	86.3512	-1.19	0.12	0.00	17.51	7.290	5.02984	7.32171	10.0
8.7075	86.3512	-1.19	0.12	0.00	17.51	7.290	5.02728	7.32347	2.0
8.7275	86.3512	-1.19	0.12	0.00	17.51	7.290	5.02472	7.32522	0.0
8.7475	86.3512	-1.19	0.12	0.00	17.51	7.290	5.02217	7.32698	2.0
8.7675	86.3512	-1.19	0.12	0.00	17.51	7.290	5.01961	7.32873	0.0
8.7875	86.3512	-1.19	0.12	0.00	17.51	7.290	5.01705	7.33048	0.0
8.8075	86.3512	-1.19	0.12	0.00	17.51	7.290	5.01449	7.33223	2.0
8.8275	86.3512	-1.19	0.12	0.00	17.51	7.290	5.01193	7.33398	0.0
8.8475	86.3512	-1.19	0.12	0.00	17.51	7.290	5.00937	7.33573	0.0
8.8675	86.3512	-1.19	0.12	0.00	17.51	7.290	5.00681	7.33748	2.0
8.8875	86.3512	-1.19	0.12	0.00	17.51	7.290	5.00425	7.33923	2.0
8.9075	86.3512	-1.19	0.12	0.00	17.51	7.290	5.00169	7.34097	2.0
8.9275	86.3512	-1.19	0.12	0.00	17.51	7.290	4.99912	7.34272	0.0
8.9475	86.3512	-1.19	0.12	0.00	17.51	7.290	4.99656	7.34446	8.0
8.9675	86.3512	-1.19	0.12	0.00	17.51	7.290	4.99400	7.34621	0.0
8.9875	86.3512	-1.19	0.12	0.00	17.51	7.290	4.99143	7.34795	2.0
9.0075	86.3512	-1.19	0.12	0.00	17.51	7.290	4.98887	7.34969	0.0
9.0275	86.3512	-1.19	0.12	0.00	17.51	7.290	4.98630	7.35143	4.0
9.0475	86.3512	-1.19	0.12	0.00	17.51	7.290	4.98373	7.35317	2.0
9.0675	86.3512	-1.19	0.12	0.00	17.51	7.290	4.98117	7.35491	2.0
9.0875	86.3512	-1.19	0.12	0.00	17.51	7.290	4.97860	7.35665	2.0
9.1075	86.3512	-1.19	0.12	0.00	17.51	7.290	4.97603	7.35839	2.0
9.1275	86.3512	-1.19	0.12	0.00	17.51	7.290	4.97346	7.36012	0.0
9.1475	86.3512	-1.19	0.12	0.00	17.51	7.290	4.97089	7.36186	2.0
9.1675	86.3512	-1.19	0.12	0.00	17.51	7.290	4.96832	7.36360	0.0
9.1875	86.3512	-1.19	0.12	0.00	17.51	7.290	4.96575	7.36533	6.0
9.2075	86.3512	-1.19	0.12	0.00	17.51	7.290	4.96318	7.36706	4.0

File: 2.0deg-2.0deg-rsm-3h10mins_11352-as-grown_224_w-scans_w_066-066.dat
# filename: 2.0deg-2.0deg-rsm-3h10mins_11352-as-grown_224_w-scans.dat
# reflection: (004)
# type: Projection of 0 omega (rotated)  scans
# x-axis: omega
#
# Omega	2Theta	Phi  	Chi   	X    	Y    	Z    	q_para	q_perp	Intensity
# [deg]	[deg] 	[deg]	[deg] 	[mm] 	[mm] 	[mm] 	[nm-1]	[nm-1]	[counts/s]
6.8111	86.3924	1.28	0.08	-30.00	20.00	7.317	5.27147	7.15394	2.0
6.8311	86.3924	1.28	0.08	-30.00	20.00	7.317	5.26897	7.15578	0.0
6.8511	86.3924	1.28	0.08	-30.00	20.00	7.317	5.26647	7.15762	0.0
6.8711	86.3924	1.28	0.08	-30.00	20.00	7.317	5.26397	7.15946	0.0
6.8911	86.3924	1.28	0.08	-30.00	20.00	7.317	5.26147	7.16129	0.0
6.9111	86.3924	1.28	0.08	-30.00	20.00	7.317	5.25897	7.16313	2.0
6.9311	86.3924	1.28	0.08	-30.00	20.00	7.317	5.25647	7.16496	0.0
6.9511	86.3924	1.28	0.08	-30.00	20.00	7.317	5.25397	7.16680	2.0
6.9711	86.3924	1.28	0.08	-30.00	20.00	7.317	5.25147	7.16863	2.0
6.9911	86.3924	1.28	0.08	-30.00	20.00	7.317	5.24897	7.17047	4.0
7.0111	86.3924	1.28	0.08	-30.00	20.00	7.317	5.24646	7.17230	4.0
7.0311	86.3924	1.28	0.08	-30.00	20.00	7.317	5.24396	7.17413	0.0
7.0511	86.3924	1.28	0.08	-30.00	20.00	7.317	5.24146	7.17596	4.0
7.0711	86.3924	1.28	0.08	-30.00	20.00	7.317	5.23895	7.17779	2.0
7.0911	86.3924	1.28	0.08	-30.00	20.00	7.317	5.23644	7.17962	0.0
7.1111	86.3924	1.28	0.08	-30.00	20.00	7.317	5.23394	7.18144	2.0
7.1311	86.3924	1.28	0.08	-30.00	20.00	7.317	5.23143	7.18327	2.0
7.1511	86.3924	1.28	0.08	-30.00	20.00	7.317	5.22892	7.18510	0.0
7.1711	86.3924	1.28	0.08	-30.00	20.00	7.317	5.22642	7.18692	2.0
7.1911	86.3924	1.28	0.08	-30.00	20.00	7.317	5.22391	7.18874	4.0
7.2111	86.3924	1.28	0.08	-30.00	20.00	7.317	5.22140	7.19057	0.0
7.2311	86.3924	1.28	0.08	-30.00	20.00	7.317	5.21889	7.19239	2.0
7.2511	86.3924	1.28	0.08	-30.00	20.00	7.317	5.21638	7.19421	2.0
7.2711	86.3924	1.28	0.08	-30.00	20.00	7.317	5.21386	7.19603	4.0
7.2911	86.3924	1.28	0.08	-30.00	20.00	7.317	5.21135	7.19785	0.0
7.3111	86.3924	1.28	0.08	-30.00	20.00	7.317	5.20884	7.19967	0.0
7.3311	86.3924	1.28	0.08	-30.00	20.00	7.317	5.20633	7.20149	2.0
7.3511	86.3924	1.28	0.08	-30.00	20.00	7.317	5.20381	7.20330	2.0
7.3711	86.3924	1.28	0.08	-30.00	20.00	7.317	5.20130	7.20512	8.0
7.3911	86.3924	1.28	0.08	-30.00	20.00	7.317	5.19878	7.20694	14.0
7.4111	86.3924	1.28	0.08	-30.00	20.00	7.317	5.19626	7.20875	16.0
7.4311	86.3924	1.28	0.08	-30.00	20.00	7.317	5.19375	7.21056	2.0
7.4511	86.3924	1.28	0.08	-30.00	20.00	7.317	5.19123	7.21238	18.0
7.4711	86.3924	1.28	0.08	-30.00	20.00	7.317	5.18871	7.21419	30.0
7.4911	86.3924	1.28	0.08	-30.00	20.00	7.317	5.18619	7.21600	28.0
7.5111	86.3924	1.28	0.08	-30.00	20.00	7.317	5.18368	7.21781	128.0
7.5311	86.3924	1.28	0.08	-30.00	20.00	7.317	5.18116	7.21962	146.0
7.5511	86.3924	1.28	0.08	-30.00	20.00	7.317	5.17864	7.22142	376.0
7.5711	86.3924	1.28	0.08	-30.00	20.00	7.317	5.17611	7.22323	664.0
7.5911	86.3924	1.28	0.08	-30.00	20.00	7.317	5.17359	7.22504	1140.0
7.6111	86.3924	1.28	0.08	-30.00	20.00	7.317	5.17107	7.22684	2072.0
7.6311	86.3924	1.28	0.08	-30.00	20.00	7.317	5.16855	7.22865	3174.0
7.6511	86.3924	1.28	0.08	-30.00	20.00	7.317	5.16602	7.23045	4888.0
7.6711	86.3924	1.28	0.08	-30.00	20.00	7.317	5.16350	7.23226	7426.0
7.6911	86.3924	1.28	0.08	-30.00	20.00	7.317	5.16097	7.23406	10380.0
7.7111	86.3924	1.28	0.08	-30.00	20.00	7.317	5.15845	7.23586	14286.0
7.7311	86.3924	1.28	0.08	-30.00	20.00	7.317	5.15592	7.23766	17656.0
7.7511	86.3924	1.28	0.08	-30.00	20.00	7.317	5.15340	7.23946	20888.0
7.7711	86.3924	1.28	0.08	-30.00	20.00	7.317	5.15087	7.24126	23840.0
7.7911	86.3924	1.28	0.08	-30.00	20.00	7.317	5.14834	7.24305	25178.0
7.8111	86.3924	1.28	0.08	-30.00	20.00	7.317	5.14581	7.24485	25520.0
7.8311	86.3924	1.28	0.08	-30.00	20.00	7.317	5.14328	7.24665	23774.0
7.8511	86.3924	1.28	0.08	-30.00	20.00	7.317	5.14075	7.24844	21892.0
7.8711	86.3924	1.28	0.08	-30.00	20.00	7.317	5.13822	7.25024	19626.0
7.8911	86.3924	1.28	0.08	-30.00	20.00	7.317	5.13569	7.25203	16504.0
7.9111	86.3924	1.28	0.08	-30.00	20.00	7.317	5.13316	7.25382	13786.0
7.9311	86.3924	1.28	0.08	-30.00	20.00	7.317	5.13063	7.25561	10630.0
7.9511	86.3924	1.28	0.08	-30.00	20.00	7.317	5.12809	7.25740	7690.0
7.9711	86.3924	1.28	0.08	-30.00	20.00	7.317	5.12556	7.25919	5092.0
7.9911	86.3924	1.28	0.08	-30.00	20.00	7.317	5.12303	7.26098	3194.0
8.0111	86.3924	1.28	0.08	-30.00	20.00	7.317	5.12049	7.26277	1954.0
8.0311	86.3924	1.28	0.08	-30.00	20.00	7.317	5.11796	7.26456	1060.0
8.0511	86.3924	1.28	0.08	-30.00	20.00	7.317	5.11542	7.26634	626.0
8.0711	86.3924	1.28	0.08	-30.00	20.00	7.317	5.11288	7.26813	376.0
8.0911	86.3924	1.28	0.08	-30.00	20.00	7.317	5.11035	7.26991	196.0
8.1111	86.3924	1.28	0.08	-30.00	20.00	7.317	5.10781	7.27169	108.0
8.1311	86.3924	1.28	0.08	-30.00	20.00	7.317	5.10527	7.27348	46.0
8.1511	86.3924	1.28	0.08	-30.00	20.00	7.317	5.10273	7.27526	36.0
8.1711	86.3924	1.28	0.08	-30.00	20.00	7.317	5.10019	7.27704	18.0
8.1911	86.3924	1.28	0.08	-30.00	20.00	7.317	5.09765	7.27882	16.0
8.2111	86.3924	1.28	0.08	-30.00	20.00	7.317	5.09511	7.28060	8.0
8.2311	86.3924	1.28	0.08	-30.00	20.00	7.317	5.09257	7.28238	8.0
8.2511	86.3924	1.28	0.08	-30.00	20.00	7.317	5.09002	7.28415	0.0
8.2711	86.3924	1.28	0.08	-30.00	20.00	7.317	5.08748	7.28593	4.0
8.2911	86.3924	1.28	0.08	-30.00	20.00	7.317	5.08494	7.28771	2.0
8.3111	86.3924	1.28	0.08	-30.00	20.00	7.317	5.08239	7.28948	8.0
8.3311	86.3924	1.28	0.08	-30.00	20.00	7.317	5.07985	7.29125	2.0
8.3511	86.3924	1.28	0.08	-30.00	20.00	7.317	5.07730	7.29303	2.0
8.3711	86.3924	1.28	0.08	-30.00	20.00	7.317	5.07476	7.29480	2.0
8.3911	86.3924	1.28	0.08	-30.00	20.00	7.317	5.07221	7.29657	2.0
8.4111	86.3924	1.28	0.08	-30.00	20.00	7.317	5.06966	7.29834	2.0
8.4311	86.3924	1.28	0.08	-30.00	20.00	7.317	5.06712	7.30011	0.0
8.4511	86.3924	1.28	0.08	-30.00	20.00	7.317	5.06457	7.30188	2.0
8.4711	86.3924	1.28	0.08	-30.00	20.00	7.317	5.06202	7.30364	2.0
8.4911	86.3924	1.28	0.08	-30.00	20.00	7.317	5.05947	7.30541	4.0
8.5111	86.3924	1.28	0.08	-30.00	20.00	7.317	5.05692	7.30718	0.0
8.5311	86.3924	1.28	0.08	-30.00	20.00	7.317	5.05437	7.30894	2.0
8.5511	86.3924	1.28	0.08	-30.00	20.00	7.317	5.05182	7.31070	6.0
8.5711	86.3924	1.28	0.08	-30.00	20.00	7.317	5.04926	7.31247	2.0
8.5911	86.3924	1.28	0.08	-30.00	20.00	7.317	5.04671	7.31423	6.0
8.6111	86.3924	1.28	0.08	-30.00	20.00	7.317	5.04416	7.31599	0.0
8.6311	86.3924	1.28	0.08	-30.00	20.00	7.317	5.04160	7.31775	0.0
8.6511	86.3924	1.28	0.08	-30.00	20.00	7.317	5.03905	7.31951	2.0
8.6711	86.3924	1.28	0.08	-30.00	20.00	7.317	5.03649	7.32127	0.0
8.6911	86.3924	1.28	0.08	-30.00	20.00	7.317	5.03394	7.32303	2.0
8.7111	86.3924	1.28	0.08	-30.00	20.00	7.317	5.03138	7.32478	0.0
8.7311	86.3924	1.28	0.08	-30.00	20.00	7.317	5.02882	7.32654	0.0
8.7511	86.3924	1.28	0.08	-30.00	20.00	7.317	5.02627	7.32829	2.0
8.7711	86.3924	1.28	0.08	-30.00	20.00	7.317	5.02371	7.33005	0.0
8.7911	86.3924	1.28	0.08	-30.00	20.00	7.317	5.02115	7.33180	2.0
8.8111	86.3924	1.28	0.08	-30.00	20.00	7.317	5.01859	7.33355	2.0