Folder: Thesis_XRD/Data/Projection_SiGePeak

File: 1.5deg-2.0deg-rsm-2h30mins_11352-annealed_004_w-scans_w_064-064.dat
# filename: 1.5deg-2.0deg-rsm-2h30mins_11352-annealed_004_w-scans.dat
# reflection: (004)
# type: Projection of 0 omega (rotated)  scans
# x-axis: omega
#
# Omega	2Theta	Phi  	Chi   	X    	Y    	Z    	q_para	q_perp	Intensity
# [deg]	[deg] 	[deg]	[deg] 	[mm] 	[mm] 	[mm] 	[nm-1]	[nm-1]	[counts/s]
33.2559	67.9476	-1.19	-0.10	0.00	17.51	7.290	0.09090	7.25410	0.0
33.2759	67.9476	-1.19	-0.10	0.00	17.51	7.290	0.08836	7.25414	0.0
33.2959	67.9476	-1.19	-0.10	0.00	17.51	7.290	0.08583	7.25417	2.0
33.3159	67.9476	-1.19	-0.10	0.00	17.51	7.290	0.08330	7.25420	0.0
33.3359	67.9476	-1.19	-0.10	0.00	17.51	7.290	0.08077	7.25422	0.0
33.3559	67.9476	-1.19	-0.10	0.00	17.51	7.290	0.07824	7.25425	0.0
33.3759	67.9476	-1.19	-0.10	0.00	17.51	7.290	0.07570	7.25428	0.0
33.3959	67.9476	-1.19	-0.10	0.00	17.51	7.290	0.07317	7.25430	0.0
33.4159	67.9476	-1.19	-0.10	0.00	17.51	7.290	0.07064	7.25433	0.0
33.4359	67.9476	-1.19	-0.10	0.00	17.51	7.290	0.06811	7.25435	2.0
33.4559	67.9476	-1.19	-0.10	0.00	17.51	7.290	0.06557	7.25438	0.0
33.4759	67.9476	-1.19	-0.10	0.00	17.51	7.290	0.06304	7.25440	2.0
33.4959	67.9476	-1.19	-0.10	0.00	17.51	7.290	0.06051	7.25442	0.0
33.5159	67.9476	-1.19	-0.10	0.00	17.51	7.290	0.05798	7.25444	2.0
33.5359	67.9476	-1.19	-0.10	0.00	17.51	7.290	0.05545	7.25446	0.0
33.5559	67.9476	-1.19	-0.10	0.00	17.51	7.290	0.05291	7.25448	0.0
33.5759	67.9476	-1.19	-0.10	0.00	17.51	7.290	0.05038	7.25450	4.0
33.5959	67.9476	-1.19	-0.10	0.00	17.51	7.290	0.04785	7.25452	2.0
33.6159	67.9476	-1.19	-0.10	0.00	17.51	7.290	0.04532	7.25453	4.0
33.6359	67.9476	-1.19	-0.10	0.00	17.51	7.290	0.04278	7.25455	4.0
33.6559	67.9476	-1.19	-0.10	0.00	17.51	7.290	0.04025	7.25456	2.0
33.6759	67.9476	-1.19	-0.10	0.00	17.51	7.290	0.03772	7.25458	0.0
33.6959	67.9476	-1.19	-0.10	0.00	17.51	7.290	0.03519	7.25459	0.0
33.7159	67.9476	-1.19	-0.10	0.00	17.51	7.290	0.03265	7.25460	0.0
33.7359	67.9476	-1.19	-0.10	0.00	17.51	7.290	0.03012	7.25461	2.0
33.7559	67.9476	-1.19	-0.10	0.00	17.51	7.290	0.02759	7.25462	0.0
33.7759	67.9476	-1.19	-0.10	0.00	17.51	7.290	0.02506	7.25463	0.0
33.7959	67.9476	-1.19	-0.10	0.00	17.51	7.290	0.02253	7.25464	2.0
33.8159	67.9476	-1.19	-0.10	0.00	17.51	7.290	0.01999	7.25465	4.0
33.8359	67.9476	-1.19	-0.10	0.00	17.51	7.290	0.01746	7.25465	2.0
33.8559	67.9476	-1.19	-0.10	0.00	17.51	7.290	0.01493	7.25466	0.0
33.8759	67.9476	-1.19	-0.10	0.00	17.51	7.290	0.01240	7.25466	10.0
33.8959	67.9476	-1.19	-0.10	0.00	17.51	7.290	0.00986	7.25467	18.0
33.9159	67.9476	-1.19	-0.10	0.00	17.51	7.290	0.00733	7.25467	32.0
33.9359	67.9476	-1.19	-0.10	0.00	17.51	7.290	0.00480	7.25467	42.0
33.9559	67.9476	-1.19	-0.10	0.00	17.51	7.290	0.00227	7.25467	66.0
33.9759	67.9476	-1.19	-0.10	0.00	17.51	7.290	-0.00027	7.25467	160.0
33.9959	67.9476	-1.19	-0.10	0.00	17.51	7.290	-0.00280	7.25467	252.0
34.0159	67.9476	-1.19	-0.10	0.00	17.51	7.290	-0.00533	7.25467	442.0
34.0359	67.9476	-1.19	-0.10	0.00	17.51	7.290	-0.00786	7.25467	826.0
34.0559	67.9476	-1.19	-0.10	0.00	17.51	7.290	-0.01040	7.25467	1144.0
34.0759	67.9476	-1.19	-0.10	0.00	17.51	7.290	-0.01293	7.25466	1774.0
34.0959	67.9476	-1.19	-0.10	0.00	17.51	7.290	-0.01546	7.25466	2826.0
34.1159	67.9476	-1.19	-0.10	0.00	17.51	7.290	-0.01799	7.25465	3808.0
34.1359	67.9476	-1.19	-0.10	0.00	17.51	7.290	-0.02052	7.25464	5070.0
34.1559	67.9476	-1.19	-0.10	0.00	17.51	7.290	-0.02306	7.25464	7094.0
34.1759	67.9476	-1.19	-0.10	0.00	17.51	7.290	-0.02559	7.25463	8606.0
34.1959	67.9476	-1.19	-0.10	0.00	17.51	7.290	-0.02812	7.25462	10100.0
34.2159	67.9476	-1.19	-0.10	0.00	17.51	7.290	-0.03065	7.25461	11778.0
34.2359	67.9476	-1.19	-0.10	0.00	17.51	7.290	-0.03319	7.25460	12502.0
34.2559	67.9476	-1.19	-0.10	0.00	17.51	7.290	-0.03572	7.25459	12488.0
34.2759	67.9476	-1.19	-0.10	0.00	17.51	7.290	-0.03825	7.25457	12374.0
34.2959	67.9476	-1.19	-0.10	0.00	17.51	7.290	-0.04078	7.25456	11348.0
34.3159	67.9476	-1.19	-0.10	0.00	17.51	7.290	-0.04332	7.25454	9744.0
34.3359	67.9476	-1.19	-0.10	0.00	17.51	7.290	-0.04585	7.25453	8056.0
34.3559	67.9476	-1.19	-0.10	0.00	17.51	7.290	-0.04838	7.25451	6838.0
34.3759	67.9476	-1.19	-0.10	0.00	17.51	7.290	-0.05091	7.25450	5318.0
34.3959	67.9476	-1.19	-0.10	0.00	17.51	7.290	-0.05344	7.25448	4030.0
34.4159	67.9476	-1.19	-0.10	0.00	17.51	7.290	-0.05598	7.25446	3044.0
34.4359	67.9476	-1.19	-0.10	0.00	17.51	7.290	-0.05851	7.25444	2328.0
34.4559	67.9476	-1.19	-0.10	0.00	17.51	7.290	-0.06104	7.25442	1590.0
34.4759	67.9476	-1.19	-0.10	0.00	17.51	7.290	-0.06357	7.25440	1054.0
34.4959	67.9476	-1.19	-0.10	0.00	17.51	7.290	-0.06611	7.25437	712.0
34.5159	67.9476	-1.19	-0.10	0.00	17.51	7.290	-0.06864	7.25435	472.0
34.5359	67.9476	-1.19	-0.10	0.00	17.51	7.290	-0.07117	7.25432	324.0
34.5559	67.9476	-1.19	-0.10	0.00	17.51	7.290	-0.07370	7.25430	154.0
34.5759	67.9476	-1.19	-0.10	0.00	17.51	7.290	-0.07624	7.25427	58.0
34.5959	67.9476	-1.19	-0.10	0.00	17.51	7.290	-0.07877	7.25425	36.0
34.6159	67.9476	-1.19	-0.10	0.00	17.51	7.290	-0.08130	7.25422	22.0
34.6359	67.9476	-1.19	-0.10	0.00	17.51	7.290	-0.08383	7.25419	6.0
34.6559	67.9476	-1.19	-0.10	0.00	17.51	7.290	-0.08636	7.25416	6.0
34.6759	67.9476	-1.19	-0.10	0.00	17.51	7.290	-0.08890	7.25413	6.0
34.6959	67.9476	-1.19	-0.10	0.00	17.51	7.290	-0.09143	7.25410	2.0
34.7159	67.9476	-1.19	-0.10	0.00	17.51	7.290	-0.09396	7.25407	2.0
34.7359	67.9476	-1.19	-0.10	0.00	17.51	7.290	-0.09649	7.25403	4.0
34.7559	67.9476	-1.19	-0.10	0.00	17.51	7.290	-0.09902	7.25400	4.0
34.7759	67.9476	-1.19	-0.10	0.00	17.51	7.290	-0.10156	7.25396	2.0
34.7959	67.9476	-1.19	-0.10	0.00	17.51	7.290	-0.10409	7.25393	2.0
34.8159	67.9476	-1.19	-0.10	0.00	17.51	7.290	-0.10662	7.25389	2.0
34.8359	67.9476	-1.19	-0.10	0.00	17.51	7.290	-0.10915	7.25385	0.0
34.8559	67.9476	-1.19	-0.10	0.00	17.51	7.290	-0.11169	7.25381	0.0
34.8759	67.9476	-1.19	-0.10	0.00	17.51	7.290	-0.11422	7.25377	2.0
34.8959	67.9476	-1.19	-0.10	0.00	17.51	7.290	-0.11675	7.25373	0.0
34.9159	67.9476	-1.19	-0.10	0.00	17.51	7.290	-0.11928	7.25369	4.0
34.9359	67.9476	-1.19	-0.10	0.00	17.51	7.290	-0.12181	7.25365	0.0
34.9559	67.9476	-1.19	-0.10	0.00	17.51	7.290	-0.12435	7.25361	0.0
34.9759	67.9476	-1.19	-0.10	0.00	17.51	7.290	-0.12688	7.25356	4.0
34.9959	67.9476	-1.19	-0.10	0.00	17.51	7.290	-0.12941	7.25352	0.0
35.0159	67.9476	-1.19	-0.10	0.00	17.51	7.290	-0.13194	7.25347	6.0
35.0359	67.9476	-1.19	-0.10	0.00	17.51	7.290	-0.13447	7.25343	2.0
35.0559	67.9476	-1.19	-0.10	0.00	17.51	7.290	-0.13701	7.25338	2.0
35.0759	67.9476	-1.19	-0.10	0.00	17.51	7.290	-0.13954	7.25333	2.0
35.0959	67.9476	-1.19	-0.10	0.00	17.51	7.290	-0.14207	7.25328	6.0
35.1159	67.9476	-1.19	-0.10	0.00	17.51	7.290	-0.14460	7.25323	2.0
35.1359	67.9476	-1.19	-0.10	0.00	17.51	7.290	-0.14713	7.25318	0.0
35.1559	67.9476	-1.19	-0.10	0.00	17.51	7.290	-0.14966	7.25313	2.0
35.1759	67.9476	-1.19	-0.10	0.00	17.51	7.290	-0.15220	7.25308	0.0
35.1959	67.9476	-1.19	-0.10	0.00	17.51	7.290	-0.15473	7.25302	0.0
35.2159	67.9476	-1.19	-0.10	0.00	17.51	7.290	-0.15726	7.25297	0.0
35.2359	67.9476	-1.19	-0.10	0.00	17.51	7.290	-0.15979	7.25291	0.0
35.2559	67.9476	-1.19	-0.10	0.00	17.51	7.290	-0.16232	7.25286	2.0

File: 1.5deg-2.0deg-rsm-2h30mins_11352-as-grown_004_w-scans_w_064-064.dat
# filename: 1.5deg-2.0deg-rsm-2h30mins_11352-as-grown_004_w-scans.dat
# reflection: (004)
# type: Projection of 0 omega (rotated)  scans
# x-axis: omega
#
# Omega	2Theta	Phi  	Chi   	X    	Y    	Z    	q_para	q_perp	Intensity
# [deg]	[deg] 	[deg]	[deg] 	[mm] 	[mm] 	[mm] 	[nm-1]	[nm-1]	[counts/s]
32.8432	67.9496	1.28	-0.03	-30.00	20.00	7.317	0.14328	7.25345	0.0
32.8632	67.9496	1.28	-0.03	-30.00	20.00	7.317	0.14074	7.25350	0.0
32.8832	67.9496	1.28	-0.03	-30.00	20.00	7.317	0.13821	7.25355	2.0
32.9032	67.9496	1.28	-0.03	-30.00	20.00	7.317	0.13568	7.25359	0.0
32.9232	67.9496	1.28	-0.03	-30.00	20.00	7.317	0.13315	7.25364	0.0
32.9432	67.9496	1.28	-0.03	-30.00	20.00	7.317	0.13062	7.25369	0.0
32.9632	67.9496	1.28	-0.03	-30.00	20.00	7.317	0.12808	7.25373	2.0
32.9832	67.9496	1.28	-0.03	-30.00	20.00	7.317	0.12555	7.25378	2.0
33.0032	67.9496	1.28	-0.03	-30.00	20.00	7.317	0.12302	7.25382	2.0
33.0232	67.9496	1.28	-0.03	-30.00	20.00	7.317	0.12049	7.25386	0.0
33.0432	67.9496	1.28	-0.03	-30.00	20.00	7.317	0.11796	7.25390	4.0
33.0632	67.9496	1.28	-0.03	-30.00	20.00	7.317	0.11542	7.25394	0.0
33.0832	67.9496	1.28	-0.03	-30.00	20.00	7.317	0.11289	7.25398	0.0
33.1032	67.9496	1.28	-0.03	-30.00	20.00	7.317	0.11036	7.25402	4.0
33.1232	67.9496	1.28	-0.03	-30.00	20.00	7.317	0.10783	7.25406	6.0
33.1432	67.9496	1.28	-0.03	-30.00	20.00	7.317	0.10529	7.25410	8.0
33.1632	67.9496	1.28	-0.03	-30.00	20.00	7.317	0.10276	7.25413	4.0
33.1832	67.9496	1.28	-0.03	-30.00	20.00	7.317	0.10023	7.25417	8.0
33.2032	67.9496	1.28	-0.03	-30.00	20.00	7.317	0.09770	7.25420	2.0
33.2232	67.9496	1.28	-0.03	-30.00	20.00	7.317	0.09517	7.25424	0.0
33.2432	67.9496	1.28	-0.03	-30.00	20.00	7.317	0.09263	7.25427	2.0
33.2632	67.9496	1.28	-0.03	-30.00	20.00	7.317	0.09010	7.25430	4.0
33.2832	67.9496	1.28	-0.03	-30.00	20.00	7.317	0.08757	7.25433	0.0
33.3032	67.9496	1.28	-0.03	-30.00	20.00	7.317	0.08504	7.25436	0.0
33.3232	67.9496	1.28	-0.03	-30.00	20.00	7.317	0.08250	7.25439	2.0
33.3432	67.9496	1.28	-0.03	-30.00	20.00	7.317	0.07997	7.25442	2.0
33.3632	67.9496	1.28	-0.03	-30.00	20.00	7.317	0.07744	7.25445	0.0
33.3832	67.9496	1.28	-0.03	-30.00	20.00	7.317	0.07491	7.25448	0.0
33.4032	67.9496	1.28	-0.03	-30.00	20.00	7.317	0.07238	7.25450	4.0
33.4232	67.9496	1.28	-0.03	-30.00	20.00	7.317	0.06984	7.25453	6.0
33.4432	67.9496	1.28	-0.03	-30.00	20.00	7.317	0.06731	7.25455	4.0
33.4632	67.9496	1.28	-0.03	-30.00	20.00	7.317	0.06478	7.25457	4.0
33.4832	67.9496	1.28	-0.03	-30.00	20.00	7.317	0.06225	7.25459	8.0
33.5032	67.9496	1.28	-0.03	-30.00	20.00	7.317	0.05971	7.25462	18.0
33.5232	67.9496	1.28	-0.03	-30.00	20.00	7.317	0.05718	7.25464	22.0
33.5432	67.9496	1.28	-0.03	-30.00	20.00	7.317	0.05465	7.25466	68.0
33.5632	67.9496	1.28	-0.03	-30.00	20.00	7.317	0.05212	7.25467	116.0
33.5832	67.9496	1.28	-0.03	-30.00	20.00	7.317	0.04958	7.25469	262.0
33.6032	67.9496	1.28	-0.03	-30.00	20.00	7.317	0.04705	7.25471	412.0
33.6232	67.9496	1.28	-0.03	-30.00	20.00	7.317	0.04452	7.25473	866.0
33.6432	67.9496	1.28	-0.03	-30.00	20.00	7.317	0.04199	7.25474	1360.0
33.6632	67.9496	1.28	-0.03	-30.00	20.00	7.317	0.03945	7.25475	2286.0
33.6832	67.9496	1.28	-0.03	-30.00	20.00	7.317	0.03692	7.25477	3698.0
33.7032	67.9496	1.28	-0.03	-30.00	20.00	7.317	0.03439	7.25478	5466.0
33.7232	67.9496	1.28	-0.03	-30.00	20.00	7.317	0.03186	7.25479	8252.0
33.7432	67.9496	1.28	-0.03	-30.00	20.00	7.317	0.02933	7.25480	11622.0
33.7632	67.9496	1.28	-0.03	-30.00	20.00	7.317	0.02679	7.25481	15366.0
33.7832	67.9496	1.28	-0.03	-30.00	20.00	7.317	0.02426	7.25482	19386.0
33.8032	67.9496	1.28	-0.03	-30.00	20.00	7.317	0.02173	7.25483	23330.0
33.8232	67.9496	1.28	-0.03	-30.00	20.00	7.317	0.01920	7.25484	25690.0
33.8432	67.9496	1.28	-0.03	-30.00	20.00	7.317	0.01666	7.25484	27646.0
33.8632	67.9496	1.28	-0.03	-30.00	20.00	7.317	0.01413	7.25485	26888.0
33.8832	67.9496	1.28	-0.03	-30.00	20.00	7.317	0.01160	7.25485	26280.0
33.9032	67.9496	1.28	-0.03	-30.00	20.00	7.317	0.00907	7.25486	24532.0
33.9232	67.9496	1.28	-0.03	-30.00	20.00	7.317	0.00653	7.25486	21470.0
33.9432	67.9496	1.28	-0.03	-30.00	20.00	7.317	0.00400	7.25486	18322.0
33.9632	67.9496	1.28	-0.03	-30.00	20.00	7.317	0.00147	7.25486	14484.0
33.9832	67.9496	1.28	-0.03	-30.00	20.00	7.317	-0.00106	7.25486	11356.0
34.0032	67.9496	1.28	-0.03	-30.00	20.00	7.317	-0.00360	7.25486	7962.0
34.0232	67.9496	1.28	-0.03	-30.00	20.00	7.317	-0.00613	7.25486	5368.0
34.0432	67.9496	1.28	-0.03	-30.00	20.00	7.317	-0.00866	7.25486	3566.0
34.0632	67.9496	1.28	-0.03	-30.00	20.00	7.317	-0.01119	7.25485	2244.0
34.0832	67.9496	1.28	-0.03	-30.00	20.00	7.317	-0.01373	7.25485	1516.0
34.1032	67.9496	1.28	-0.03	-30.00	20.00	7.317	-0.01626	7.25484	824.0
34.1232	67.9496	1.28	-0.03	-30.00	20.00	7.317	-0.01879	7.25484	508.0
34.1432	67.9496	1.28	-0.03	-30.00	20.00	7.317	-0.02132	7.25483	306.0
34.1632	67.9496	1.28	-0.03	-30.00	20.00	7.317	-0.02386	7.25482	134.0
34.1832	67.9496	1.28	-0.03	-30.00	20.00	7.317	-0.02639	7.25481	60.0
34.2032	67.9496	1.28	-0.03	-30.00	20.00	7.317	-0.02892	7.25480	30.0
34.2232	67.9496	1.28	-0.03	-30.00	20.00	7.317	-0.03145	7.25479	22.0
34.2432	67.9496	1.28	-0.03	-30.00	20.00	7.317	-0.03399	7.25478	18.0
34.2632	67.9496	1.28	-0.03	-30.00	20.00	7.317	-0.03652	7.25477	6.0
34.2832	67.9496	1.28	-0.03	-30.00	20.00	7.317	-0.03905	7.25476	8.0
34.3032	67.9496	1.28	-0.03	-30.00	20.00	7.317	-0.04158	7.25474	0.0
34.3232	67.9496	1.28	-0.03	-30.00	20.00	7.317	-0.04411	7.25473	6.0
34.3432	67.9496	1.28	-0.03	-30.00	20.00	7.317	-0.04665	7.25471	4.0
34.3632	67.9496	1.28	-0.03	-30.00	20.00	7.317	-0.04918	7.25470	0.0
34.3832	67.9496	1.28	-0.03	-30.00	20.00	7.317	-0.05171	7.25468	2.0
34.4032	67.9496	1.28	-0.03	-30.00	20.00	7.317	-0.05424	7.25466	2.0
34.4232	67.9496	1.28	-0.03	-30.00	20.00	7.317	-0.05678	7.25464	2.0
34.4432	67.9496	1.28	-0.03	-30.00	20.00	7.317	-0.05931	7.25462	0.0
34.4632	67.9496	1.28	-0.03	-30.00	20.00	7.317	-0.06184	7.25460	0.0
34.4832	67.9496	1.28	-0.03	-30.00	20.00	7.317	-0.06437	7.25458	0.0
34.5032	67.9496	1.28	-0.03	-30.00	20.00	7.317	-0.06691	7.25455	0.0
34.5232	67.9496	1.28	-0.03	-30.00	20.00	7.317	-0.06944	7.25453	2.0
34.5432	67.9496	1.28	-0.03	-30.00	20.00	7.317	-0.07197	7.25450	8.0
34.5632	67.9496	1.28	-0.03	-30.00	20.00	7.317	-0.07450	7.25448	0.0
34.5832	67.9496	1.28	-0.03	-30.00	20.00	7.317	-0.07703	7.25445	2.0
34.6032	67.9496	1.28	-0.03	-30.00	20.00	7.317	-0.07957	7.25443	0.0
34.6232	67.9496	1.28	-0.03	-30.00	20.00	7.317	-0.08210	7.25440	4.0
34.6432	67.9496	1.28	-0.03	-30.00	20.00	7.317	-0.08463	7.25437	0.0
34.6632	67.9496	1.28	-0.03	-30.00	20.00	7.317	-0.08716	7.25434	2.0
34.6832	67.9496	1.28	-0.03	-30.00	20.00	7.317	-0.08970	7.25431	2.0
34.7032	67.9496	1.28	-0.03	-30.00	20.00	7.317	-0.09223	7.25428	0.0
34.7232	67.9496	1.28	-0.03	-30.00	20.00	7.317	-0.09476	7.25424	0.0
34.7432	67.9496	1.28	-0.03	-30.00	20.00	7.317	-0.09729	7.25421	2.0
34.7632	67.9496	1.28	-0.03	-30.00	20.00	7.317	-0.09983	7.25417	4.0
34.7832	67.9496	1.28	-0.03	-30.00	20.00	7.317	-0.10236	7.25414	4.0
34.8032	67.9496	1.28	-0.03	-30.00	20.00	7.317	-0.10489	7.25410	0.0
34.8232	67.9496	1.28	-0.03	-30.00	20.00	7.317	-0.10742	7.25407	0.0
34.8432	67.9496	1.28	-0.03	-30.00	20.00	7.317	-0.10995	7.25403	0.0

File: 1.5deg-2.0deg-rsm-2h30mins_11354-annealed_004_w-scans_w_063-063.dat
# filename: 1.5deg-2.0deg-rsm-2h30mins_11354-annealed_004_w-scans.dat
# reflection: (004)
# type: Projection of 0 omega (rotated)  scans
# x-axis: omega
#
# Omega	2Theta	Phi  	Chi   	X    	Y    	Z    	q_para	q_perp	Intensity
# [deg]	[deg] 	[deg]	[deg] 	[mm] 	[mm] 	[mm] 	[nm-1]	[nm-1]	[counts/s]
33.4839	67.9302	-0.10	0.00	0.00	-22.75	7.333	0.06091	7.25278	6.0
33.5039	67.9302	-0.10	0.00	0.00	-22.75	7.333	0.05838	7.25280	0.0
33.5239	67.9302	-0.10	0.00	0.00	-22.75	7.333	0.05585	7.25282	4.0
33.5439	67.9302	-0.10	0.00	0.00	-22.75	7.333	0.05332	7.25284	2.0
33.5639	67.9302	-0.10	0.00	0.00	-22.75	7.333	0.05079	7.25286	2.0
33.5839	67.9302	-0.10	0.00	0.00	-22.75	7.333	0.04826	7.25288	4.0
33.6039	67.9302	-0.10	0.00	0.00	-22.75	7.333	0.04572	7.25289	0.0
33.6239	67.9302	-0.10	0.00	0.00	-22.75	7.333	0.04319	7.25291	2.0
33.6439	67.9302	-0.10	0.00	0.00	-22.75	7.333	0.04066	7.25293	4.0
33.6639	67.9302	-0.10	0.00	0.00	-22.75	7.333	0.03813	7.25294	0.0
33.6839	67.9302	-0.10	0.00	0.00	-22.75	7.333	0.03560	7.25295	0.0
33.7039	67.9302	-0.10	0.00	0.00	-22.75	7.333	0.03307	7.25296	0.0
33.7239	67.9302	-0.10	0.00	0.00	-22.75	7.333	0.03053	7.25297	0.0
33.7439	67.9302	-0.10	0.00	0.00	-22.75	7.333	0.02800	7.25298	0.0
33.7639	67.9302	-0.10	0.00	0.00	-22.75	7.333	0.02547	7.25299	0.0
33.7839	67.9302	-0.10	0.00	0.00	-22.75	7.333	0.02294	7.25300	0.0
33.8039	67.9302	-0.10	0.00	0.00	-22.75	7.333	0.02041	7.25301	0.0
33.8239	67.9302	-0.10	0.00	0.00	-22.75	7.333	0.01787	7.25302	0.0
33.8439	67.9302	-0.10	0.00	0.00	-22.75	7.333	0.01534	7.25302	6.0
33.8639	67.9302	-0.10	0.00	0.00	-22.75	7.333	0.01281	7.25303	2.0
33.8839	67.9302	-0.10	0.00	0.00	-22.75	7.333	0.01028	7.25303	2.0
33.9039	67.9302	-0.10	0.00	0.00	-22.75	7.333	0.00775	7.25303	2.0
33.9239	67.9302	-0.10	0.00	0.00	-22.75	7.333	0.00522	7.25304	2.0
33.9439	67.9302	-0.10	0.00	0.00	-22.75	7.333	0.00268	7.25304	2.0
33.9639	67.9302	-0.10	0.00	0.00	-22.75	7.333	0.00015	7.25304	0.0
33.9839	67.9302	-0.10	0.00	0.00	-22.75	7.333	-0.00238	7.25304	4.0
34.0039	67.9302	-0.10	0.00	0.00	-22.75	7.333	-0.00491	7.25304	0.0
34.0239	67.9302	-0.10	0.00	0.00	-22.75	7.333	-0.00744	7.25304	0.0
34.0439	67.9302	-0.10	0.00	0.00	-22.75	7.333	-0.00998	7.25303	16.0
34.0639	67.9302	-0.10	0.00	0.00	-22.75	7.333	-0.01251	7.25303	6.0
34.0839	67.9302	-0.10	0.00	0.00	-22.75	7.333	-0.01504	7.25302	22.0
34.1039	67.9302	-0.10	0.00	0.00	-22.75	7.333	-0.01757	7.25302	40.0
34.1239	67.9302	-0.10	0.00	0.00	-22.75	7.333	-0.02010	7.25301	58.0
34.1439	67.9302	-0.10	0.00	0.00	-22.75	7.333	-0.02263	7.25300	84.0
34.1639	67.9302	-0.10	0.00	0.00	-22.75	7.333	-0.02517	7.25300	156.0
34.1839	67.9302	-0.10	0.00	0.00	-22.75	7.333	-0.02770	7.25299	276.0
34.2039	67.9302	-0.10	0.00	0.00	-22.75	7.333	-0.03023	7.25298	500.0
34.2239	67.9302	-0.10	0.00	0.00	-22.75	7.333	-0.03276	7.25297	882.0
34.2439	67.9302	-0.10	0.00	0.00	-22.75	7.333	-0.03529	7.25295	1330.0
34.2639	67.9302	-0.10	0.00	0.00	-22.75	7.333	-0.03782	7.25294	1958.0
34.2839	67.9302	-0.10	0.00	0.00	-22.75	7.333	-0.04036	7.25293	2728.0
34.3039	67.9302	-0.10	0.00	0.00	-22.75	7.333	-0.04289	7.25291	4054.0
34.3239	67.9302	-0.10	0.00	0.00	-22.75	7.333	-0.04542	7.25290	5572.0
34.3439	67.9302	-0.10	0.00	0.00	-22.75	7.333	-0.04795	7.25288	7064.0
34.3639	67.9302	-0.10	0.00	0.00	-22.75	7.333	-0.05048	7.25286	9006.0
34.3839	67.9302	-0.10	0.00	0.00	-22.75	7.333	-0.05302	7.25285	11384.0
34.4039	67.9302	-0.10	0.00	0.00	-22.75	7.333	-0.05555	7.25283	13756.0
34.4239	67.9302	-0.10	0.00	0.00	-22.75	7.333	-0.05808	7.25281	16034.0
34.4439	67.9302	-0.10	0.00	0.00	-22.75	7.333	-0.06061	7.25279	18038.0
34.4639	67.9302	-0.10	0.00	0.00	-22.75	7.333	-0.06314	7.25276	19826.0
34.4839	67.9302	-0.10	0.00	0.00	-22.75	7.333	-0.06567	7.25274	21186.0
34.5039	67.9302	-0.10	0.00	0.00	-22.75	7.333	-0.06821	7.25272	21500.0
34.5239	67.9302	-0.10	0.00	0.00	-22.75	7.333	-0.07074	7.25269	20406.0
34.5439	67.9302	-0.10	0.00	0.00	-22.75	7.333	-0.07327	7.25267	19112.0
34.5639	67.9302	-0.10	0.00	0.00	-22.75	7.333	-0.07580	7.25264	16958.0
34.5839	67.9302	-0.10	0.00	0.00	-22.75	7.333	-0.07833	7.25262	14448.0
34.6039	67.9302	-0.10	0.00	0.00	-22.75	7.333	-0.08086	7.25259	11724.0
34.6239	67.9302	-0.10	0.00	0.00	-22.75	7.333	-0.08340	7.25256	9144.0
34.6439	67.9302	-0.10	0.00	0.00	-22.75	7.333	-0.08593	7.25253	6904.0
34.6639	67.9302	-0.10	0.00	0.00	-22.75	7.333	-0.08846	7.25250	4848.0
34.6839	67.9302	-0.10	0.00	0.00	-22.75	7.333	-0.09099	7.25247	3502.0
34.7039	67.9302	-0.10	0.00	0.00	-22.75	7.333	-0.09352	7.25244	2206.0
34.7239	67.9302	-0.10	0.00	0.00	-22.75	7.333	-0.09605	7.25240	1454.0
34.7439	67.9302	-0.10	0.00	0.00	-22.75	7.333	-0.09858	7.25237	982.0
34.7639	67.9302	-0.10	0.00	0.00	-22.75	7.333	-0.10112	7.25233	576.0
34.7839	67.9302	-0.10	0.00	0.00	-22.75	7.333	-0.10365	7.25230	372.0
34.8039	67.9302	-0.10	0.00	0.00	-22.75	7.333	-0.10618	7.25226	210.0
34.8239	67.9302	-0.10	0.00	0.00	-22.75	7.333	-0.10871	7.25222	156.0
34.8439	67.9302	-0.10	0.00	0.00	-22.75	7.333	-0.11124	7.25219	92.0
34.8639	67.9302	-0.10	0.00	0.00	-22.75	7.333	-0.11377	7.25215	46.0
34.8839	67.9302	-0.10	0.00	0.00	-22.75	7.333	-0.11631	7.25211	34.0
34.9039	67.9302	-0.10	0.00	0.00	-22.75	7.333	-0.11884	7.25207	32.0
34.9239	67.9302	-0.10	0.00	0.00	-22.75	7.333	-0.12137	7.25202	26.0
34.9439	67.9302	-0.10	0.00	0.00	-22.75	7.333	-0.12390	7.25198	24.0
34.9639	67.9302	-0.10	0.00	0.00	-22.75	7.333	-0.12643	7.25194	22.0
34.9839	67.9302	-0.10	0.00	0.00	-22.75	7.333	-0.12896	7.25189	12.0
35.0039	67.9302	-0.10	0.00	0.00	-22.75	7.333	-0.13149	7.25185	4.0
35.0239	67.9302	-0.10	0.00	0.00	-22.75	7.333	-0.13403	7.25180	4.0
35.0439	67.9302	-0.10	0.00	0.00	-22.75	7.333	-0.13656	7.25175	8.0
35.0639	67.9302	-0.10	0.00	0.00	-22.75	7.333	-0.13909	7.25171	2.0
35.0839	67.9302	-0.10	0.00	0.00	-22.75	7.333	-0.14162	7.25166	0.0
35.1039	67.9302	-0.10	0.00	0.00	-22.75	7.333	-0.14415	7.25161	4.0
35.1239	67.9302	-0.10	0.00	0.00	-22.75	7.333	-0.14668	7.25156	2.0
35.1439	67.9302	-0.10	0.00	0.00	-22.75	7.333	-0.14921	7.25150	0.0
35.1639	67.9302	-0.10	0.00	0.00	-22.75	7.333	-0.15174	7.25145	2.0
35.1839	67.9302	-0.10	0.00	0.00	-22.75	7.333	-0.15428	7.25140	0.0
35.2039	67.9302	-0.10	0.00	0.00	-22.75	7.333	-0.15681	7.25134	6.0
35.2239	67.9302	-0.10	0.00	0.00	-22.75	7.333	-0.15934	7.25129	0.0
35.2439	67.9302	-0.10	0.00	0.00	-22.75	7.333	-0.16187	7.25123	0.0
35.2639	67.9302	-0.10	0.00	0.00	-22.75	7.333	-0.16440	7.25118	2.0
35.2839	67.9302	-0.10	0.00	0.00	-22.75	7.333	-0.16693	7.25112	2.0
35.3039	67.9302	-0.10	0.00	0.00	-22.75	7.333	-0.16946	7.25106	0.0
35.3239	67.9302	-0.10	0.00	0.00	-22.75	7.333	-0.17199	7.25100	2.0
35.3439	67.9302	-0.10	0.00	0.00	-22.75	7.333	-0.17452	7.25094	0.0
35.3639	67.9302	-0.10	0.00	0.00	-22.75	7.333	-0.17706	7.25088	2.0
35.3839	67.9302	-0.10	0.00	0.00	-22.75	7.333	-0.17959	7.25082	2.0
35.4039	67.9302	-0.10	0.00	0.00	-22.75	7.333	-0.18212	7.25075	0.0
35.4239	67.9302	-0.10	0.00	0.00	-22.75	7.333	-0.18465	7.25069	2.0
35.4439	67.9302	-0.10	0.00	0.00	-22.75	7.333	-0.18718	7.25062	0.0
35.4639	67.9302	-0.10	0.00	0.00	-22.75	7.333	-0.18971	7.25056	2.0
35.4839	67.9302	-0.10	0.00	0.00	-22.75	7.333	-0.19224	7.25049	2.0