Folder: Thesis_XRD/Data/Projection_SiGePeak (part 7)

File: 2.0deg-2.0deg-rsm-3h10mins_11371-annealed_224_w-scans_w_065-065.dat
# filename: 2.0deg-2.0deg-rsm-3h10mins_11371-annealed_224_w-scans.dat
# reflection: (004)
# type: Projection of 0 omega (rotated)  scans
# x-axis: omega
#
# Omega	2Theta	Phi  	Chi   	X    	Y    	Z    	q_para	q_perp	Intensity
# [deg]	[deg] 	[deg]	[deg] 	[mm] 	[mm] 	[mm] 	[nm-1]	[nm-1]	[counts/s]
7.1277	86.3532	-0.92	0.32	0.00	17.53	7.303	5.22749	7.18213	6.0
7.1477	86.3532	-0.92	0.32	0.00	17.53	7.303	5.22499	7.18395	0.0
7.1677	86.3532	-0.92	0.32	0.00	17.53	7.303	5.22248	7.18578	0.0
7.1877	86.3532	-0.92	0.32	0.00	17.53	7.303	5.21997	7.18760	4.0
7.2077	86.3532	-0.92	0.32	0.00	17.53	7.303	5.21746	7.18942	0.0
7.2277	86.3532	-0.92	0.32	0.00	17.53	7.303	5.21495	7.19124	0.0
7.2477	86.3532	-0.92	0.32	0.00	17.53	7.303	5.21244	7.19306	2.0
7.2677	86.3532	-0.92	0.32	0.00	17.53	7.303	5.20993	7.19488	0.0
7.2877	86.3532	-0.92	0.32	0.00	17.53	7.303	5.20742	7.19670	0.0
7.3077	86.3532	-0.92	0.32	0.00	17.53	7.303	5.20491	7.19852	2.0
7.3277	86.3532	-0.92	0.32	0.00	17.53	7.303	5.20239	7.20033	4.0
7.3477	86.3532	-0.92	0.32	0.00	17.53	7.303	5.19988	7.20215	0.0
7.3677	86.3532	-0.92	0.32	0.00	17.53	7.303	5.19736	7.20396	6.0
7.3877	86.3532	-0.92	0.32	0.00	17.53	7.303	5.19485	7.20578	2.0
7.4077	86.3532	-0.92	0.32	0.00	17.53	7.303	5.19233	7.20759	2.0
7.4277	86.3532	-0.92	0.32	0.00	17.53	7.303	5.18982	7.20940	4.0
7.4477	86.3532	-0.92	0.32	0.00	17.53	7.303	5.18730	7.21121	0.0
7.4677	86.3532	-0.92	0.32	0.00	17.53	7.303	5.18478	7.21302	2.0
7.4877	86.3532	-0.92	0.32	0.00	17.53	7.303	5.18227	7.21483	0.0
7.5077	86.3532	-0.92	0.32	0.00	17.53	7.303	5.17975	7.21664	8.0
7.5277	86.3532	-0.92	0.32	0.00	17.53	7.303	5.17723	7.21845	14.0
7.5477	86.3532	-0.92	0.32	0.00	17.53	7.303	5.17471	7.22026	16.0
7.5677	86.3532	-0.92	0.32	0.00	17.53	7.303	5.17219	7.22206	8.0
7.5877	86.3532	-0.92	0.32	0.00	17.53	7.303	5.16966	7.22387	8.0
7.6077	86.3532	-0.92	0.32	0.00	17.53	7.303	5.16714	7.22567	4.0
7.6277	86.3532	-0.92	0.32	0.00	17.53	7.303	5.16462	7.22748	14.0
7.6477	86.3532	-0.92	0.32	0.00	17.53	7.303	5.16210	7.22928	16.0
7.6677	86.3532	-0.92	0.32	0.00	17.53	7.303	5.15957	7.23108	52.0
7.6877	86.3532	-0.92	0.32	0.00	17.53	7.303	5.15705	7.23288	72.0
7.7077	86.3532	-0.92	0.32	0.00	17.53	7.303	5.15452	7.23468	142.0
7.7277	86.3532	-0.92	0.32	0.00	17.53	7.303	5.15200	7.23648	240.0
7.7477	86.3532	-0.92	0.32	0.00	17.53	7.303	5.14947	7.23828	376.0
7.7677	86.3532	-0.92	0.32	0.00	17.53	7.303	5.14694	7.24007	608.0
7.7877	86.3532	-0.92	0.32	0.00	17.53	7.303	5.14442	7.24187	1036.0
7.8077	86.3532	-0.92	0.32	0.00	17.53	7.303	5.14189	7.24366	1480.0
7.8277	86.3532	-0.92	0.32	0.00	17.53	7.303	5.13936	7.24546	2230.0
7.8477	86.3532	-0.92	0.32	0.00	17.53	7.303	5.13683	7.24725	3106.0
7.8677	86.3532	-0.92	0.32	0.00	17.53	7.303	5.13430	7.24905	4222.0
7.8877	86.3532	-0.92	0.32	0.00	17.53	7.303	5.13177	7.25084	5822.0
7.9077	86.3532	-0.92	0.32	0.00	17.53	7.303	5.12924	7.25263	7566.0
7.9277	86.3532	-0.92	0.32	0.00	17.53	7.303	5.12671	7.25442	9350.0
7.9477	86.3532	-0.92	0.32	0.00	17.53	7.303	5.12417	7.25621	11698.0
7.9677	86.3532	-0.92	0.32	0.00	17.53	7.303	5.12164	7.25800	14172.0
7.9877	86.3532	-0.92	0.32	0.00	17.53	7.303	5.11911	7.25978	16372.0
8.0077	86.3532	-0.92	0.32	0.00	17.53	7.303	5.11657	7.26157	18416.0
8.0277	86.3532	-0.92	0.32	0.00	17.53	7.303	5.11404	7.26335	19888.0
8.0477	86.3532	-0.92	0.32	0.00	17.53	7.303	5.11150	7.26514	20986.0
8.0677	86.3532	-0.92	0.32	0.00	17.53	7.303	5.10897	7.26692	21816.0
8.0877	86.3532	-0.92	0.32	0.00	17.53	7.303	5.10643	7.26871	21256.0
8.1077	86.3532	-0.92	0.32	0.00	17.53	7.303	5.10389	7.27049	20346.0
8.1277	86.3532	-0.92	0.32	0.00	17.53	7.303	5.10135	7.27227	18314.0
8.1477	86.3532	-0.92	0.32	0.00	17.53	7.303	5.09881	7.27405	16760.0
8.1677	86.3532	-0.92	0.32	0.00	17.53	7.303	5.09627	7.27583	14906.0
8.1877	86.3532	-0.92	0.32	0.00	17.53	7.303	5.09373	7.27761	12484.0
8.2077	86.3532	-0.92	0.32	0.00	17.53	7.303	5.09119	7.27938	10486.0
8.2277	86.3532	-0.92	0.32	0.00	17.53	7.303	5.08865	7.28116	8558.0
8.2477	86.3532	-0.92	0.32	0.00	17.53	7.303	5.08611	7.28294	6546.0
8.2677	86.3532	-0.92	0.32	0.00	17.53	7.303	5.08357	7.28471	5270.0
8.2877	86.3532	-0.92	0.32	0.00	17.53	7.303	5.08103	7.28649	3936.0
8.3077	86.3532	-0.92	0.32	0.00	17.53	7.303	5.07848	7.28826	2878.0
8.3277	86.3532	-0.92	0.32	0.00	17.53	7.303	5.07594	7.29003	2070.0
8.3477	86.3532	-0.92	0.32	0.00	17.53	7.303	5.07339	7.29180	1322.0
8.3677	86.3532	-0.92	0.32	0.00	17.53	7.303	5.07085	7.29357	918.0
8.3877	86.3532	-0.92	0.32	0.00	17.53	7.303	5.06830	7.29534	636.0
8.4077	86.3532	-0.92	0.32	0.00	17.53	7.303	5.06575	7.29711	456.0
8.4277	86.3532	-0.92	0.32	0.00	17.53	7.303	5.06321	7.29888	282.0
8.4477	86.3532	-0.92	0.32	0.00	17.53	7.303	5.06066	7.30065	192.0
8.4677	86.3532	-0.92	0.32	0.00	17.53	7.303	5.05811	7.30241	80.0
8.4877	86.3532	-0.92	0.32	0.00	17.53	7.303	5.05556	7.30418	64.0
8.5077	86.3532	-0.92	0.32	0.00	17.53	7.303	5.05301	7.30594	26.0
8.5277	86.3532	-0.92	0.32	0.00	17.53	7.303	5.05046	7.30771	20.0
8.5477	86.3532	-0.92	0.32	0.00	17.53	7.303	5.04791	7.30947	4.0
8.5677	86.3532	-0.92	0.32	0.00	17.53	7.303	5.04536	7.31123	0.0
8.5877	86.3532	-0.92	0.32	0.00	17.53	7.303	5.04280	7.31299	4.0
8.6077	86.3532	-0.92	0.32	0.00	17.53	7.303	5.04025	7.31475	2.0
8.6277	86.3532	-0.92	0.32	0.00	17.53	7.303	5.03770	7.31651	0.0
8.6477	86.3532	-0.92	0.32	0.00	17.53	7.303	5.03514	7.31827	2.0
8.6677	86.3532	-0.92	0.32	0.00	17.53	7.303	5.03259	7.32002	2.0
8.6877	86.3532	-0.92	0.32	0.00	17.53	7.303	5.03003	7.32178	4.0
8.7077	86.3532	-0.92	0.32	0.00	17.53	7.303	5.02748	7.32354	4.0
8.7277	86.3532	-0.92	0.32	0.00	17.53	7.303	5.02492	7.32529	0.0
8.7477	86.3532	-0.92	0.32	0.00	17.53	7.303	5.02236	7.32704	2.0
8.7677	86.3532	-0.92	0.32	0.00	17.53	7.303	5.01980	7.32880	2.0
8.7877	86.3532	-0.92	0.32	0.00	17.53	7.303	5.01725	7.33055	2.0
8.8077	86.3532	-0.92	0.32	0.00	17.53	7.303	5.01469	7.33230	2.0
8.8277	86.3532	-0.92	0.32	0.00	17.53	7.303	5.01213	7.33405	2.0
8.8477	86.3532	-0.92	0.32	0.00	17.53	7.303	5.00957	7.33580	2.0
8.8677	86.3532	-0.92	0.32	0.00	17.53	7.303	5.00701	7.33755	0.0
8.8877	86.3532	-0.92	0.32	0.00	17.53	7.303	5.00444	7.33929	2.0
8.9077	86.3532	-0.92	0.32	0.00	17.53	7.303	5.00188	7.34104	0.0
8.9277	86.3532	-0.92	0.32	0.00	17.53	7.303	4.99932	7.34279	2.0
8.9477	86.3532	-0.92	0.32	0.00	17.53	7.303	4.99676	7.34453	4.0
8.9677	86.3532	-0.92	0.32	0.00	17.53	7.303	4.99419	7.34627	0.0
8.9877	86.3532	-0.92	0.32	0.00	17.53	7.303	4.99163	7.34802	0.0
9.0077	86.3532	-0.92	0.32	0.00	17.53	7.303	4.98906	7.34976	4.0
9.0277	86.3532	-0.92	0.32	0.00	17.53	7.303	4.98650	7.35150	4.0
9.0477	86.3532	-0.92	0.32	0.00	17.53	7.303	4.98393	7.35324	2.0
9.0677	86.3532	-0.92	0.32	0.00	17.53	7.303	4.98136	7.35498	4.0
9.0877	86.3532	-0.92	0.32	0.00	17.53	7.303	4.97879	7.35672	6.0
9.1077	86.3532	-0.92	0.32	0.00	17.53	7.303	4.97623	7.35846	0.0
9.1277	86.3532	-0.92	0.32	0.00	17.53	7.303	4.97366	7.36019	2.0

File: 2.0deg-2.0deg-rsm-3h10mins_11371-as-grown_224_w-scans_w_065-065.dat
# filename: 2.0deg-2.0deg-rsm-3h10mins_11371-as-grown_224_w-scans.dat
# reflection: (004)
# type: Projection of 0 omega (rotated)  scans
# x-axis: omega
#
# Omega	2Theta	Phi  	Chi   	X    	Y    	Z    	q_para	q_perp	Intensity
# [deg]	[deg] 	[deg]	[deg] 	[mm] 	[mm] 	[mm] 	[nm-1]	[nm-1]	[counts/s]
7.0479	86.3636	0.79	0.07	5.00	5.00	7.412	5.23865	7.17506	4.0
7.0679	86.3636	0.79	0.07	5.00	5.00	7.412	5.23615	7.17689	2.0
7.0879	86.3636	0.79	0.07	5.00	5.00	7.412	5.23364	7.17872	2.0
7.1079	86.3636	0.79	0.07	5.00	5.00	7.412	5.23113	7.18054	0.0
7.1279	86.3636	0.79	0.07	5.00	5.00	7.412	5.22863	7.18237	2.0
7.1479	86.3636	0.79	0.07	5.00	5.00	7.412	5.22612	7.18419	4.0
7.1679	86.3636	0.79	0.07	5.00	5.00	7.412	5.22361	7.18602	0.0
7.1879	86.3636	0.79	0.07	5.00	5.00	7.412	5.22110	7.18784	4.0
7.2079	86.3636	0.79	0.07	5.00	5.00	7.412	5.21859	7.18966	0.0
7.2279	86.3636	0.79	0.07	5.00	5.00	7.412	5.21608	7.19148	0.0
7.2479	86.3636	0.79	0.07	5.00	5.00	7.412	5.21357	7.19330	2.0
7.2679	86.3636	0.79	0.07	5.00	5.00	7.412	5.21106	7.19512	6.0
7.2879	86.3636	0.79	0.07	5.00	5.00	7.412	5.20855	7.19694	2.0
7.3079	86.3636	0.79	0.07	5.00	5.00	7.412	5.20604	7.19876	0.0
7.3279	86.3636	0.79	0.07	5.00	5.00	7.412	5.20352	7.20058	0.0
7.3479	86.3636	0.79	0.07	5.00	5.00	7.412	5.20101	7.20239	4.0
7.3679	86.3636	0.79	0.07	5.00	5.00	7.412	5.19850	7.20421	4.0
7.3879	86.3636	0.79	0.07	5.00	5.00	7.412	5.19598	7.20602	6.0
7.4079	86.3636	0.79	0.07	5.00	5.00	7.412	5.19346	7.20784	6.0
7.4279	86.3636	0.79	0.07	5.00	5.00	7.412	5.19095	7.20965	6.0
7.4479	86.3636	0.79	0.07	5.00	5.00	7.412	5.18843	7.21146	6.0
7.4679	86.3636	0.79	0.07	5.00	5.00	7.412	5.18591	7.21327	2.0
7.4879	86.3636	0.79	0.07	5.00	5.00	7.412	5.18340	7.21508	4.0
7.5079	86.3636	0.79	0.07	5.00	5.00	7.412	5.18088	7.21689	2.0
7.5279	86.3636	0.79	0.07	5.00	5.00	7.412	5.17836	7.21870	6.0
7.5479	86.3636	0.79	0.07	5.00	5.00	7.412	5.17584	7.22050	12.0
7.5679	86.3636	0.79	0.07	5.00	5.00	7.412	5.17332	7.22231	18.0
7.5879	86.3636	0.79	0.07	5.00	5.00	7.412	5.17080	7.22412	24.0
7.6079	86.3636	0.79	0.07	5.00	5.00	7.412	5.16827	7.22592	108.0
7.6279	86.3636	0.79	0.07	5.00	5.00	7.412	5.16575	7.22772	150.0
7.6479	86.3636	0.79	0.07	5.00	5.00	7.412	5.16323	7.22953	242.0
7.6679	86.3636	0.79	0.07	5.00	5.00	7.412	5.16070	7.23133	418.0
7.6879	86.3636	0.79	0.07	5.00	5.00	7.412	5.15818	7.23313	782.0
7.7079	86.3636	0.79	0.07	5.00	5.00	7.412	5.15565	7.23493	1256.0
7.7279	86.3636	0.79	0.07	5.00	5.00	7.412	5.15313	7.23673	1726.0
7.7479	86.3636	0.79	0.07	5.00	5.00	7.412	5.15060	7.23853	2484.0
7.7679	86.3636	0.79	0.07	5.00	5.00	7.412	5.14807	7.24032	3258.0
7.7879	86.3636	0.79	0.07	5.00	5.00	7.412	5.14555	7.24212	4924.0
7.8079	86.3636	0.79	0.07	5.00	5.00	7.412	5.14302	7.24392	6740.0
7.8279	86.3636	0.79	0.07	5.00	5.00	7.412	5.14049	7.24571	8734.0
7.8479	86.3636	0.79	0.07	5.00	5.00	7.412	5.13796	7.24751	11162.0
7.8679	86.3636	0.79	0.07	5.00	5.00	7.412	5.13543	7.24930	13248.0
7.8879	86.3636	0.79	0.07	5.00	5.00	7.412	5.13290	7.25109	15858.0
7.9079	86.3636	0.79	0.07	5.00	5.00	7.412	5.13037	7.25288	17760.0
7.9279	86.3636	0.79	0.07	5.00	5.00	7.412	5.12784	7.25467	19912.0
7.9479	86.3636	0.79	0.07	5.00	5.00	7.412	5.12530	7.25646	21160.0
7.9679	86.3636	0.79	0.07	5.00	5.00	7.412	5.12277	7.25825	21332.0
7.9879	86.3636	0.79	0.07	5.00	5.00	7.412	5.12024	7.26004	22070.0
8.0079	86.3636	0.79	0.07	5.00	5.00	7.412	5.11770	7.26182	21614.0
8.0279	86.3636	0.79	0.07	5.00	5.00	7.412	5.11517	7.26361	20660.0
8.0479	86.3636	0.79	0.07	5.00	5.00	7.412	5.11263	7.26540	18918.0
8.0679	86.3636	0.79	0.07	5.00	5.00	7.412	5.11009	7.26718	17754.0
8.0879	86.3636	0.79	0.07	5.00	5.00	7.412	5.10756	7.26896	15060.0
8.1079	86.3636	0.79	0.07	5.00	5.00	7.412	5.10502	7.27075	13234.0
8.1279	86.3636	0.79	0.07	5.00	5.00	7.412	5.10248	7.27253	10898.0
8.1479	86.3636	0.79	0.07	5.00	5.00	7.412	5.09994	7.27431	8676.0
8.1679	86.3636	0.79	0.07	5.00	5.00	7.412	5.09740	7.27609	6640.0
8.1879	86.3636	0.79	0.07	5.00	5.00	7.412	5.09486	7.27787	5252.0
8.2079	86.3636	0.79	0.07	5.00	5.00	7.412	5.09232	7.27964	3896.0
8.2279	86.3636	0.79	0.07	5.00	5.00	7.412	5.08978	7.28142	2742.0
8.2479	86.3636	0.79	0.07	5.00	5.00	7.412	5.08724	7.28320	1828.0
8.2679	86.3636	0.79	0.07	5.00	5.00	7.412	5.08470	7.28497	1204.0
8.2879	86.3636	0.79	0.07	5.00	5.00	7.412	5.08215	7.28675	784.0
8.3079	86.3636	0.79	0.07	5.00	5.00	7.412	5.07961	7.28852	576.0
8.3279	86.3636	0.79	0.07	5.00	5.00	7.412	5.07706	7.29029	306.0
8.3479	86.3636	0.79	0.07	5.00	5.00	7.412	5.07452	7.29207	198.0
8.3679	86.3636	0.79	0.07	5.00	5.00	7.412	5.07197	7.29384	150.0
8.3879	86.3636	0.79	0.07	5.00	5.00	7.412	5.06943	7.29561	78.0
8.4079	86.3636	0.79	0.07	5.00	5.00	7.412	5.06688	7.29738	28.0
8.4279	86.3636	0.79	0.07	5.00	5.00	7.412	5.06433	7.29914	10.0
8.4479	86.3636	0.79	0.07	5.00	5.00	7.412	5.06178	7.30091	8.0
8.4679	86.3636	0.79	0.07	5.00	5.00	7.412	5.05924	7.30268	4.0
8.4879	86.3636	0.79	0.07	5.00	5.00	7.412	5.05669	7.30444	4.0
8.5079	86.3636	0.79	0.07	5.00	5.00	7.412	5.05414	7.30621	2.0
8.5279	86.3636	0.79	0.07	5.00	5.00	7.412	5.05159	7.30797	2.0
8.5479	86.3636	0.79	0.07	5.00	5.00	7.412	5.04903	7.30973	4.0
8.5679	86.3636	0.79	0.07	5.00	5.00	7.412	5.04648	7.31150	2.0
8.5879	86.3636	0.79	0.07	5.00	5.00	7.412	5.04393	7.31326	0.0
8.6079	86.3636	0.79	0.07	5.00	5.00	7.412	5.04138	7.31502	2.0
8.6279	86.3636	0.79	0.07	5.00	5.00	7.412	5.03882	7.31678	4.0
8.6479	86.3636	0.79	0.07	5.00	5.00	7.412	5.03627	7.31854	2.0
8.6679	86.3636	0.79	0.07	5.00	5.00	7.412	5.03371	7.32029	2.0
8.6879	86.3636	0.79	0.07	5.00	5.00	7.412	5.03116	7.32205	6.0
8.7079	86.3636	0.79	0.07	5.00	5.00	7.412	5.02860	7.32381	4.0
8.7279	86.3636	0.79	0.07	5.00	5.00	7.412	5.02604	7.32556	2.0
8.7479	86.3636	0.79	0.07	5.00	5.00	7.412	5.02349	7.32731	2.0
8.7679	86.3636	0.79	0.07	5.00	5.00	7.412	5.02093	7.32907	2.0
8.7879	86.3636	0.79	0.07	5.00	5.00	7.412	5.01837	7.33082	2.0
8.8079	86.3636	0.79	0.07	5.00	5.00	7.412	5.01581	7.33257	0.0
8.8279	86.3636	0.79	0.07	5.00	5.00	7.412	5.01325	7.33432	4.0
8.8479	86.3636	0.79	0.07	5.00	5.00	7.412	5.01069	7.33607	0.0
8.8679	86.3636	0.79	0.07	5.00	5.00	7.412	5.00813	7.33782	0.0
8.8879	86.3636	0.79	0.07	5.00	5.00	7.412	5.00557	7.33957	0.0
8.9079	86.3636	0.79	0.07	5.00	5.00	7.412	5.00301	7.34131	2.0
8.9279	86.3636	0.79	0.07	5.00	5.00	7.412	5.00044	7.34306	2.0
8.9479	86.3636	0.79	0.07	5.00	5.00	7.412	4.99788	7.34481	2.0
8.9679	86.3636	0.79	0.07	5.00	5.00	7.412	4.99532	7.34655	0.0
8.9879	86.3636	0.79	0.07	5.00	5.00	7.412	4.99275	7.34829	0.0
9.0079	86.3636	0.79	0.07	5.00	5.00	7.412	4.99019	7.35003	2.0
9.0279	86.3636	0.79	0.07	5.00	5.00	7.412	4.98762	7.35178	2.0
9.0479	86.3636	0.79	0.07	5.00	5.00	7.412	4.98505	7.35352	0.0