Folder: Thesis_XRD/Data/Projection_SiGePeak (part 2)

File: 1.5deg-2.0deg-rsm-2h30mins_11354-as-grown_004_w-scans_w_063-063.dat
# filename: 1.5deg-2.0deg-rsm-2h30mins_11354-as-grown_004_w-scans.dat
# reflection: (004)
# type: Projection of 0 omega (rotated)  scans
# x-axis: omega
#
# Omega	2Theta	Phi  	Chi   	X    	Y    	Z    	q_para	q_perp	Intensity
# [deg]	[deg] 	[deg]	[deg] 	[mm] 	[mm] 	[mm] 	[nm-1]	[nm-1]	[counts/s]
32.5953	67.9298	1.74	0.02	10.00	20.00	7.278	0.17336	7.25093	2.0
32.6153	67.9298	1.74	0.02	10.00	20.00	7.278	0.17083	7.25099	0.0
32.6353	67.9298	1.74	0.02	10.00	20.00	7.278	0.16830	7.25105	2.0
32.6553	67.9298	1.74	0.02	10.00	20.00	7.278	0.16577	7.25111	0.0
32.6753	67.9298	1.74	0.02	10.00	20.00	7.278	0.16324	7.25116	0.0
32.6953	67.9298	1.74	0.02	10.00	20.00	7.278	0.16070	7.25122	0.0
32.7153	67.9298	1.74	0.02	10.00	20.00	7.278	0.15817	7.25128	0.0
32.7353	67.9298	1.74	0.02	10.00	20.00	7.278	0.15564	7.25133	0.0
32.7553	67.9298	1.74	0.02	10.00	20.00	7.278	0.15311	7.25139	0.0
32.7753	67.9298	1.74	0.02	10.00	20.00	7.278	0.15058	7.25144	0.0
32.7953	67.9298	1.74	0.02	10.00	20.00	7.278	0.14805	7.25149	0.0
32.8153	67.9298	1.74	0.02	10.00	20.00	7.278	0.14552	7.25154	0.0
32.8353	67.9298	1.74	0.02	10.00	20.00	7.278	0.14299	7.25159	0.0
32.8553	67.9298	1.74	0.02	10.00	20.00	7.278	0.14045	7.25164	2.0
32.8753	67.9298	1.74	0.02	10.00	20.00	7.278	0.13792	7.25169	4.0
32.8953	67.9298	1.74	0.02	10.00	20.00	7.278	0.13539	7.25174	0.0
32.9153	67.9298	1.74	0.02	10.00	20.00	7.278	0.13286	7.25178	6.0
32.9353	67.9298	1.74	0.02	10.00	20.00	7.278	0.13033	7.25183	2.0
32.9553	67.9298	1.74	0.02	10.00	20.00	7.278	0.12780	7.25188	4.0
32.9753	67.9298	1.74	0.02	10.00	20.00	7.278	0.12527	7.25192	2.0
32.9953	67.9298	1.74	0.02	10.00	20.00	7.278	0.12273	7.25196	0.0
33.0153	67.9298	1.74	0.02	10.00	20.00	7.278	0.12020	7.25201	0.0
33.0353	67.9298	1.74	0.02	10.00	20.00	7.278	0.11767	7.25205	2.0
33.0553	67.9298	1.74	0.02	10.00	20.00	7.278	0.11514	7.25209	4.0
33.0753	67.9298	1.74	0.02	10.00	20.00	7.278	0.11261	7.25213	2.0
33.0953	67.9298	1.74	0.02	10.00	20.00	7.278	0.11008	7.25217	2.0
33.1153	67.9298	1.74	0.02	10.00	20.00	7.278	0.10755	7.25220	10.0
33.1353	67.9298	1.74	0.02	10.00	20.00	7.278	0.10501	7.25224	2.0
33.1553	67.9298	1.74	0.02	10.00	20.00	7.278	0.10248	7.25228	2.0
33.1753	67.9298	1.74	0.02	10.00	20.00	7.278	0.09995	7.25231	8.0
33.1953	67.9298	1.74	0.02	10.00	20.00	7.278	0.09742	7.25235	2.0
33.2153	67.9298	1.74	0.02	10.00	20.00	7.278	0.09489	7.25238	10.0
33.2353	67.9298	1.74	0.02	10.00	20.00	7.278	0.09236	7.25241	20.0
33.2553	67.9298	1.74	0.02	10.00	20.00	7.278	0.08983	7.25245	44.0
33.2753	67.9298	1.74	0.02	10.00	20.00	7.278	0.08729	7.25248	78.0
33.2953	67.9298	1.74	0.02	10.00	20.00	7.278	0.08476	7.25251	184.0
33.3153	67.9298	1.74	0.02	10.00	20.00	7.278	0.08223	7.25254	256.0
33.3353	67.9298	1.74	0.02	10.00	20.00	7.278	0.07970	7.25256	430.0
33.3553	67.9298	1.74	0.02	10.00	20.00	7.278	0.07717	7.25259	736.0
33.3753	67.9298	1.74	0.02	10.00	20.00	7.278	0.07464	7.25262	1068.0
33.3953	67.9298	1.74	0.02	10.00	20.00	7.278	0.07210	7.25264	1672.0
33.4153	67.9298	1.74	0.02	10.00	20.00	7.278	0.06957	7.25267	2508.0
33.4353	67.9298	1.74	0.02	10.00	20.00	7.278	0.06704	7.25269	3556.0
33.4553	67.9298	1.74	0.02	10.00	20.00	7.278	0.06451	7.25271	4956.0
33.4753	67.9298	1.74	0.02	10.00	20.00	7.278	0.06198	7.25274	7160.0
33.4953	67.9298	1.74	0.02	10.00	20.00	7.278	0.05945	7.25276	9174.0
33.5153	67.9298	1.74	0.02	10.00	20.00	7.278	0.05691	7.25278	11106.0
33.5353	67.9298	1.74	0.02	10.00	20.00	7.278	0.05438	7.25280	13514.0
33.5553	67.9298	1.74	0.02	10.00	20.00	7.278	0.05185	7.25282	15892.0
33.5753	67.9298	1.74	0.02	10.00	20.00	7.278	0.04932	7.25283	17812.0
33.5953	67.9298	1.74	0.02	10.00	20.00	7.278	0.04679	7.25285	19072.0
33.6153	67.9298	1.74	0.02	10.00	20.00	7.278	0.04426	7.25287	19926.0
33.6353	67.9298	1.74	0.02	10.00	20.00	7.278	0.04172	7.25288	20056.0
33.6553	67.9298	1.74	0.02	10.00	20.00	7.278	0.03919	7.25290	18682.0
33.6753	67.9298	1.74	0.02	10.00	20.00	7.278	0.03666	7.25291	17760.0
33.6953	67.9298	1.74	0.02	10.00	20.00	7.278	0.03413	7.25292	16404.0
33.7153	67.9298	1.74	0.02	10.00	20.00	7.278	0.03160	7.25293	14364.0
33.7353	67.9298	1.74	0.02	10.00	20.00	7.278	0.02906	7.25294	11504.0
33.7553	67.9298	1.74	0.02	10.00	20.00	7.278	0.02653	7.25295	9782.0
33.7753	67.9298	1.74	0.02	10.00	20.00	7.278	0.02400	7.25296	7938.0
33.7953	67.9298	1.74	0.02	10.00	20.00	7.278	0.02147	7.25297	6264.0
33.8153	67.9298	1.74	0.02	10.00	20.00	7.278	0.01894	7.25298	4604.0
33.8353	67.9298	1.74	0.02	10.00	20.00	7.278	0.01641	7.25298	3360.0
33.8553	67.9298	1.74	0.02	10.00	20.00	7.278	0.01387	7.25299	2506.0
33.8753	67.9298	1.74	0.02	10.00	20.00	7.278	0.01134	7.25299	1586.0
33.8953	67.9298	1.74	0.02	10.00	20.00	7.278	0.00881	7.25300	836.0
33.9153	67.9298	1.74	0.02	10.00	20.00	7.278	0.00628	7.25300	448.0
33.9353	67.9298	1.74	0.02	10.00	20.00	7.278	0.00375	7.25300	264.0
33.9553	67.9298	1.74	0.02	10.00	20.00	7.278	0.00122	7.25300	196.0
33.9753	67.9298	1.74	0.02	10.00	20.00	7.278	-0.00132	7.25300	96.0
33.9953	67.9298	1.74	0.02	10.00	20.00	7.278	-0.00385	7.25300	50.0
34.0153	67.9298	1.74	0.02	10.00	20.00	7.278	-0.00638	7.25300	30.0
34.0353	67.9298	1.74	0.02	10.00	20.00	7.278	-0.00891	7.25300	24.0
34.0553	67.9298	1.74	0.02	10.00	20.00	7.278	-0.01144	7.25299	30.0
34.0753	67.9298	1.74	0.02	10.00	20.00	7.278	-0.01398	7.25299	20.0
34.0953	67.9298	1.74	0.02	10.00	20.00	7.278	-0.01651	7.25298	16.0
34.1153	67.9298	1.74	0.02	10.00	20.00	7.278	-0.01904	7.25298	10.0
34.1353	67.9298	1.74	0.02	10.00	20.00	7.278	-0.02157	7.25297	4.0
34.1553	67.9298	1.74	0.02	10.00	20.00	7.278	-0.02410	7.25296	20.0
34.1753	67.9298	1.74	0.02	10.00	20.00	7.278	-0.02663	7.25295	0.0
34.1953	67.9298	1.74	0.02	10.00	20.00	7.278	-0.02917	7.25294	10.0
34.2153	67.9298	1.74	0.02	10.00	20.00	7.278	-0.03170	7.25293	12.0
34.2353	67.9298	1.74	0.02	10.00	20.00	7.278	-0.03423	7.25292	0.0
34.2553	67.9298	1.74	0.02	10.00	20.00	7.278	-0.03676	7.25291	4.0
34.2753	67.9298	1.74	0.02	10.00	20.00	7.278	-0.03929	7.25290	0.0
34.2953	67.9298	1.74	0.02	10.00	20.00	7.278	-0.04182	7.25288	0.0
34.3153	67.9298	1.74	0.02	10.00	20.00	7.278	-0.04436	7.25287	0.0
34.3353	67.9298	1.74	0.02	10.00	20.00	7.278	-0.04689	7.25285	2.0
34.3553	67.9298	1.74	0.02	10.00	20.00	7.278	-0.04942	7.25283	0.0
34.3753	67.9298	1.74	0.02	10.00	20.00	7.278	-0.05195	7.25282	2.0
34.3953	67.9298	1.74	0.02	10.00	20.00	7.278	-0.05448	7.25280	2.0
34.4153	67.9298	1.74	0.02	10.00	20.00	7.278	-0.05701	7.25278	4.0
34.4353	67.9298	1.74	0.02	10.00	20.00	7.278	-0.05955	7.25276	0.0
34.4553	67.9298	1.74	0.02	10.00	20.00	7.278	-0.06208	7.25274	0.0
34.4753	67.9298	1.74	0.02	10.00	20.00	7.278	-0.06461	7.25271	2.0
34.4953	67.9298	1.74	0.02	10.00	20.00	7.278	-0.06714	7.25269	2.0
34.5153	67.9298	1.74	0.02	10.00	20.00	7.278	-0.06967	7.25267	0.0
34.5353	67.9298	1.74	0.02	10.00	20.00	7.278	-0.07221	7.25264	2.0
34.5553	67.9298	1.74	0.02	10.00	20.00	7.278	-0.07474	7.25262	0.0
34.5753	67.9298	1.74	0.02	10.00	20.00	7.278	-0.07727	7.25259	0.0
34.5953	67.9298	1.74	0.02	10.00	20.00	7.278	-0.07980	7.25256	0.0

File: 1.5deg-2.0deg-rsm-2h30mins_11355-annealed_004_w-scans_w_064-064.dat
# filename: 1.5deg-2.0deg-rsm-2h30mins_11355-annealed_004_w-scans.dat
# reflection: (004)
# type: Projection of 0 omega (rotated)  scans
# x-axis: omega
#
# Omega	2Theta	Phi  	Chi   	X    	Y    	Z    	q_para	q_perp	Intensity
# [deg]	[deg] 	[deg]	[deg] 	[mm] 	[mm] 	[mm] 	[nm-1]	[nm-1]	[counts/s]
33.3213	67.9468	-0.70	-0.27	0.00	15.50	7.376	0.08256	7.25413	0.0
33.3413	67.9468	-0.70	-0.27	0.00	15.50	7.376	0.08003	7.25416	0.0
33.3613	67.9468	-0.70	-0.27	0.00	15.50	7.376	0.07750	7.25418	0.0
33.3813	67.9468	-0.70	-0.27	0.00	15.50	7.376	0.07497	7.25421	2.0
33.4013	67.9468	-0.70	-0.27	0.00	15.50	7.376	0.07244	7.25424	2.0
33.4213	67.9468	-0.70	-0.27	0.00	15.50	7.376	0.06990	7.25426	2.0
33.4413	67.9468	-0.70	-0.27	0.00	15.50	7.376	0.06737	7.25429	0.0
33.4613	67.9468	-0.70	-0.27	0.00	15.50	7.376	0.06484	7.25431	0.0
33.4813	67.9468	-0.70	-0.27	0.00	15.50	7.376	0.06231	7.25433	2.0
33.5013	67.9468	-0.70	-0.27	0.00	15.50	7.376	0.05978	7.25435	4.0
33.5213	67.9468	-0.70	-0.27	0.00	15.50	7.376	0.05724	7.25437	0.0
33.5413	67.9468	-0.70	-0.27	0.00	15.50	7.376	0.05471	7.25439	2.0
33.5613	67.9468	-0.70	-0.27	0.00	15.50	7.376	0.05218	7.25441	2.0
33.5813	67.9468	-0.70	-0.27	0.00	15.50	7.376	0.04965	7.25443	2.0
33.6013	67.9468	-0.70	-0.27	0.00	15.50	7.376	0.04711	7.25445	2.0
33.6213	67.9468	-0.70	-0.27	0.00	15.50	7.376	0.04458	7.25446	2.0
33.6413	67.9468	-0.70	-0.27	0.00	15.50	7.376	0.04205	7.25448	0.0
33.6613	67.9468	-0.70	-0.27	0.00	15.50	7.376	0.03952	7.25449	0.0
33.6813	67.9468	-0.70	-0.27	0.00	15.50	7.376	0.03698	7.25450	2.0
33.7013	67.9468	-0.70	-0.27	0.00	15.50	7.376	0.03445	7.25452	2.0
33.7213	67.9468	-0.70	-0.27	0.00	15.50	7.376	0.03192	7.25453	0.0
33.7413	67.9468	-0.70	-0.27	0.00	15.50	7.376	0.02939	7.25454	2.0
33.7613	67.9468	-0.70	-0.27	0.00	15.50	7.376	0.02686	7.25455	2.0
33.7813	67.9468	-0.70	-0.27	0.00	15.50	7.376	0.02432	7.25456	4.0
33.8013	67.9468	-0.70	-0.27	0.00	15.50	7.376	0.02179	7.25457	2.0
33.8213	67.9468	-0.70	-0.27	0.00	15.50	7.376	0.01926	7.25457	0.0
33.8413	67.9468	-0.70	-0.27	0.00	15.50	7.376	0.01673	7.25458	0.0
33.8613	67.9468	-0.70	-0.27	0.00	15.50	7.376	0.01419	7.25458	14.0
33.8813	67.9468	-0.70	-0.27	0.00	15.50	7.376	0.01166	7.25459	22.0
33.9013	67.9468	-0.70	-0.27	0.00	15.50	7.376	0.00913	7.25459	34.0
33.9213	67.9468	-0.70	-0.27	0.00	15.50	7.376	0.00660	7.25460	62.0
33.9413	67.9468	-0.70	-0.27	0.00	15.50	7.376	0.00406	7.25460	64.0
33.9613	67.9468	-0.70	-0.27	0.00	15.50	7.376	0.00153	7.25460	82.0
33.9813	67.9468	-0.70	-0.27	0.00	15.50	7.376	-0.00100	7.25460	92.0
34.0013	67.9468	-0.70	-0.27	0.00	15.50	7.376	-0.00353	7.25460	60.0
34.0213	67.9468	-0.70	-0.27	0.00	15.50	7.376	-0.00606	7.25460	110.0
34.0413	67.9468	-0.70	-0.27	0.00	15.50	7.376	-0.00860	7.25459	264.0
34.0613	67.9468	-0.70	-0.27	0.00	15.50	7.376	-0.01113	7.25459	414.0
34.0813	67.9468	-0.70	-0.27	0.00	15.50	7.376	-0.01366	7.25459	598.0
34.1013	67.9468	-0.70	-0.27	0.00	15.50	7.376	-0.01619	7.25458	878.0
34.1213	67.9468	-0.70	-0.27	0.00	15.50	7.376	-0.01873	7.25457	1338.0
34.1413	67.9468	-0.70	-0.27	0.00	15.50	7.376	-0.02126	7.25457	1618.0
34.1613	67.9468	-0.70	-0.27	0.00	15.50	7.376	-0.02379	7.25456	2232.0
34.1813	67.9468	-0.70	-0.27	0.00	15.50	7.376	-0.02632	7.25455	2708.0
34.2013	67.9468	-0.70	-0.27	0.00	15.50	7.376	-0.02886	7.25454	3156.0
34.2213	67.9468	-0.70	-0.27	0.00	15.50	7.376	-0.03139	7.25453	3480.0
34.2413	67.9468	-0.70	-0.27	0.00	15.50	7.376	-0.03392	7.25452	4106.0
34.2613	67.9468	-0.70	-0.27	0.00	15.50	7.376	-0.03645	7.25451	4660.0
34.2813	67.9468	-0.70	-0.27	0.00	15.50	7.376	-0.03899	7.25449	5024.0
34.3013	67.9468	-0.70	-0.27	0.00	15.50	7.376	-0.04152	7.25448	4820.0
34.3213	67.9468	-0.70	-0.27	0.00	15.50	7.376	-0.04405	7.25446	4820.0
34.3413	67.9468	-0.70	-0.27	0.00	15.50	7.376	-0.04658	7.25445	4580.0
34.3613	67.9468	-0.70	-0.27	0.00	15.50	7.376	-0.04911	7.25443	4240.0
34.3813	67.9468	-0.70	-0.27	0.00	15.50	7.376	-0.05165	7.25441	3666.0
34.4013	67.9468	-0.70	-0.27	0.00	15.50	7.376	-0.05418	7.25440	3018.0
34.4213	67.9468	-0.70	-0.27	0.00	15.50	7.376	-0.05671	7.25438	2636.0
34.4413	67.9468	-0.70	-0.27	0.00	15.50	7.376	-0.05924	7.25436	2016.0
34.4613	67.9468	-0.70	-0.27	0.00	15.50	7.376	-0.06178	7.25434	1676.0
34.4813	67.9468	-0.70	-0.27	0.00	15.50	7.376	-0.06431	7.25431	1294.0
34.5013	67.9468	-0.70	-0.27	0.00	15.50	7.376	-0.06684	7.25429	932.0
34.5213	67.9468	-0.70	-0.27	0.00	15.50	7.376	-0.06937	7.25427	570.0
34.5413	67.9468	-0.70	-0.27	0.00	15.50	7.376	-0.07190	7.25424	336.0
34.5613	67.9468	-0.70	-0.27	0.00	15.50	7.376	-0.07444	7.25422	276.0
34.5813	67.9468	-0.70	-0.27	0.00	15.50	7.376	-0.07697	7.25419	154.0
34.6013	67.9468	-0.70	-0.27	0.00	15.50	7.376	-0.07950	7.25416	122.0
34.6213	67.9468	-0.70	-0.27	0.00	15.50	7.376	-0.08203	7.25413	48.0
34.6413	67.9468	-0.70	-0.27	0.00	15.50	7.376	-0.08457	7.25411	40.0
34.6613	67.9468	-0.70	-0.27	0.00	15.50	7.376	-0.08710	7.25408	10.0
34.6813	67.9468	-0.70	-0.27	0.00	15.50	7.376	-0.08963	7.25405	18.0
34.7013	67.9468	-0.70	-0.27	0.00	15.50	7.376	-0.09216	7.25401	4.0
34.7213	67.9468	-0.70	-0.27	0.00	15.50	7.376	-0.09469	7.25398	0.0
34.7413	67.9468	-0.70	-0.27	0.00	15.50	7.376	-0.09723	7.25395	0.0
34.7613	67.9468	-0.70	-0.27	0.00	15.50	7.376	-0.09976	7.25391	0.0
34.7813	67.9468	-0.70	-0.27	0.00	15.50	7.376	-0.10229	7.25388	0.0
34.8013	67.9468	-0.70	-0.27	0.00	15.50	7.376	-0.10482	7.25384	2.0
34.8213	67.9468	-0.70	-0.27	0.00	15.50	7.376	-0.10735	7.25380	0.0
34.8413	67.9468	-0.70	-0.27	0.00	15.50	7.376	-0.10989	7.25377	2.0
34.8613	67.9468	-0.70	-0.27	0.00	15.50	7.376	-0.11242	7.25373	2.0
34.8813	67.9468	-0.70	-0.27	0.00	15.50	7.376	-0.11495	7.25369	2.0
34.9013	67.9468	-0.70	-0.27	0.00	15.50	7.376	-0.11748	7.25365	0.0
34.9213	67.9468	-0.70	-0.27	0.00	15.50	7.376	-0.12001	7.25361	0.0
34.9413	67.9468	-0.70	-0.27	0.00	15.50	7.376	-0.12255	7.25356	2.0
34.9613	67.9468	-0.70	-0.27	0.00	15.50	7.376	-0.12508	7.25352	0.0
34.9813	67.9468	-0.70	-0.27	0.00	15.50	7.376	-0.12761	7.25348	4.0
35.0013	67.9468	-0.70	-0.27	0.00	15.50	7.376	-0.13014	7.25343	0.0
35.0213	67.9468	-0.70	-0.27	0.00	15.50	7.376	-0.13267	7.25339	0.0
35.0413	67.9468	-0.70	-0.27	0.00	15.50	7.376	-0.13521	7.25334	2.0
35.0613	67.9468	-0.70	-0.27	0.00	15.50	7.376	-0.13774	7.25329	0.0
35.0813	67.9468	-0.70	-0.27	0.00	15.50	7.376	-0.14027	7.25324	0.0
35.1013	67.9468	-0.70	-0.27	0.00	15.50	7.376	-0.14280	7.25319	0.0
35.1213	67.9468	-0.70	-0.27	0.00	15.50	7.376	-0.14533	7.25314	0.0
35.1413	67.9468	-0.70	-0.27	0.00	15.50	7.376	-0.14787	7.25309	0.0
35.1613	67.9468	-0.70	-0.27	0.00	15.50	7.376	-0.15040	7.25304	2.0
35.1813	67.9468	-0.70	-0.27	0.00	15.50	7.376	-0.15293	7.25299	0.0
35.2013	67.9468	-0.70	-0.27	0.00	15.50	7.376	-0.15546	7.25293	2.0
35.2213	67.9468	-0.70	-0.27	0.00	15.50	7.376	-0.15799	7.25288	0.0
35.2413	67.9468	-0.70	-0.27	0.00	15.50	7.376	-0.16052	7.25282	0.0
35.2613	67.9468	-0.70	-0.27	0.00	15.50	7.376	-0.16306	7.25277	0.0
35.2813	67.9468	-0.70	-0.27	0.00	15.50	7.376	-0.16559	7.25271	2.0
35.3013	67.9468	-0.70	-0.27	0.00	15.50	7.376	-0.16812	7.25265	0.0
35.3213	67.9468	-0.70	-0.27	0.00	15.50	7.376	-0.17065	7.25259	0.0

File: 1.5deg-2.0deg-rsm-2h30mins_11355-as-grown_004_w-scans_w_064-064.dat
# filename: 1.5deg-2.0deg-rsm-2h30mins_11355-as-grown_004_w-scans.dat
# reflection: (004)
# type: Projection of 0 omega (rotated)  scans
# x-axis: omega
#
# Omega	2Theta	Phi  	Chi   	X    	Y    	Z    	q_para	q_perp	Intensity
# [deg]	[deg] 	[deg]	[deg] 	[mm] 	[mm] 	[mm] 	[nm-1]	[nm-1]	[counts/s]
32.8086	67.9492	0.46	0.06	-30.00	-20.00	7.373	0.14763	7.25332	8.0
32.8286	67.9492	0.46	0.06	-30.00	-20.00	7.373	0.14510	7.25337	2.0
32.8486	67.9492	0.46	0.06	-30.00	-20.00	7.373	0.14257	7.25342	0.0
32.8686	67.9492	0.46	0.06	-30.00	-20.00	7.373	0.14003	7.25347	0.0
32.8886	67.9492	0.46	0.06	-30.00	-20.00	7.373	0.13750	7.25352	2.0
32.9086	67.9492	0.46	0.06	-30.00	-20.00	7.373	0.13497	7.25357	2.0
32.9286	67.9492	0.46	0.06	-30.00	-20.00	7.373	0.13244	7.25362	0.0
32.9486	67.9492	0.46	0.06	-30.00	-20.00	7.373	0.12991	7.25366	2.0
32.9686	67.9492	0.46	0.06	-30.00	-20.00	7.373	0.12737	7.25371	0.0
32.9886	67.9492	0.46	0.06	-30.00	-20.00	7.373	0.12484	7.25375	2.0
33.0086	67.9492	0.46	0.06	-30.00	-20.00	7.373	0.12231	7.25379	0.0
33.0286	67.9492	0.46	0.06	-30.00	-20.00	7.373	0.11978	7.25384	0.0
33.0486	67.9492	0.46	0.06	-30.00	-20.00	7.373	0.11725	7.25388	2.0
33.0686	67.9492	0.46	0.06	-30.00	-20.00	7.373	0.11471	7.25392	0.0
33.0886	67.9492	0.46	0.06	-30.00	-20.00	7.373	0.11218	7.25396	4.0
33.1086	67.9492	0.46	0.06	-30.00	-20.00	7.373	0.10965	7.25400	2.0
33.1286	67.9492	0.46	0.06	-30.00	-20.00	7.373	0.10712	7.25403	0.0
33.1486	67.9492	0.46	0.06	-30.00	-20.00	7.373	0.10458	7.25407	6.0
33.1686	67.9492	0.46	0.06	-30.00	-20.00	7.373	0.10205	7.25411	0.0
33.1886	67.9492	0.46	0.06	-30.00	-20.00	7.373	0.09952	7.25414	0.0
33.2086	67.9492	0.46	0.06	-30.00	-20.00	7.373	0.09699	7.25418	2.0
33.2286	67.9492	0.46	0.06	-30.00	-20.00	7.373	0.09446	7.25421	0.0
33.2486	67.9492	0.46	0.06	-30.00	-20.00	7.373	0.09192	7.25424	0.0
33.2686	67.9492	0.46	0.06	-30.00	-20.00	7.373	0.08939	7.25427	0.0
33.2886	67.9492	0.46	0.06	-30.00	-20.00	7.373	0.08686	7.25430	0.0
33.3086	67.9492	0.46	0.06	-30.00	-20.00	7.373	0.08433	7.25433	0.0
33.3286	67.9492	0.46	0.06	-30.00	-20.00	7.373	0.08180	7.25436	4.0
33.3486	67.9492	0.46	0.06	-30.00	-20.00	7.373	0.07926	7.25439	4.0
33.3686	67.9492	0.46	0.06	-30.00	-20.00	7.373	0.07673	7.25442	2.0
33.3886	67.9492	0.46	0.06	-30.00	-20.00	7.373	0.07420	7.25444	10.0
33.4086	67.9492	0.46	0.06	-30.00	-20.00	7.373	0.07167	7.25447	16.0
33.4286	67.9492	0.46	0.06	-30.00	-20.00	7.373	0.06913	7.25449	12.0
33.4486	67.9492	0.46	0.06	-30.00	-20.00	7.373	0.06660	7.25452	38.0
33.4686	67.9492	0.46	0.06	-30.00	-20.00	7.373	0.06407	7.25454	50.0
33.4886	67.9492	0.46	0.06	-30.00	-20.00	7.373	0.06154	7.25456	96.0
33.5086	67.9492	0.46	0.06	-30.00	-20.00	7.373	0.05900	7.25458	152.0
33.5286	67.9492	0.46	0.06	-30.00	-20.00	7.373	0.05647	7.25460	228.0
33.5486	67.9492	0.46	0.06	-30.00	-20.00	7.373	0.05394	7.25462	488.0
33.5686	67.9492	0.46	0.06	-30.00	-20.00	7.373	0.05141	7.25464	762.0
33.5886	67.9492	0.46	0.06	-30.00	-20.00	7.373	0.04888	7.25466	1042.0
33.6086	67.9492	0.46	0.06	-30.00	-20.00	7.373	0.04634	7.25468	1768.0
33.6286	67.9492	0.46	0.06	-30.00	-20.00	7.373	0.04381	7.25469	2610.0
33.6486	67.9492	0.46	0.06	-30.00	-20.00	7.373	0.04128	7.25471	4242.0
33.6686	67.9492	0.46	0.06	-30.00	-20.00	7.373	0.03875	7.25472	5846.0
33.6886	67.9492	0.46	0.06	-30.00	-20.00	7.373	0.03621	7.25473	7960.0
33.7086	67.9492	0.46	0.06	-30.00	-20.00	7.373	0.03368	7.25475	10998.0
33.7286	67.9492	0.46	0.06	-30.00	-20.00	7.373	0.03115	7.25476	13728.0
33.7486	67.9492	0.46	0.06	-30.00	-20.00	7.373	0.02862	7.25477	16252.0
33.7686	67.9492	0.46	0.06	-30.00	-20.00	7.373	0.02608	7.25478	18558.0
33.7886	67.9492	0.46	0.06	-30.00	-20.00	7.373	0.02355	7.25479	21112.0
33.8086	67.9492	0.46	0.06	-30.00	-20.00	7.373	0.02102	7.25479	22964.0
33.8286	67.9492	0.46	0.06	-30.00	-20.00	7.373	0.01849	7.25480	23884.0
33.8486	67.9492	0.46	0.06	-30.00	-20.00	7.373	0.01595	7.25481	23820.0
33.8686	67.9492	0.46	0.06	-30.00	-20.00	7.373	0.01342	7.25481	22564.0
33.8886	67.9492	0.46	0.06	-30.00	-20.00	7.373	0.01089	7.25482	20474.0
33.9086	67.9492	0.46	0.06	-30.00	-20.00	7.373	0.00836	7.25482	17684.0
33.9286	67.9492	0.46	0.06	-30.00	-20.00	7.373	0.00582	7.25482	14738.0
33.9486	67.9492	0.46	0.06	-30.00	-20.00	7.373	0.00329	7.25482	12008.0
33.9686	67.9492	0.46	0.06	-30.00	-20.00	7.373	0.00076	7.25482	9044.0
33.9886	67.9492	0.46	0.06	-30.00	-20.00	7.373	-0.00177	7.25482	6706.0
34.0086	67.9492	0.46	0.06	-30.00	-20.00	7.373	-0.00431	7.25482	4570.0
34.0286	67.9492	0.46	0.06	-30.00	-20.00	7.373	-0.00684	7.25482	3386.0
34.0486	67.9492	0.46	0.06	-30.00	-20.00	7.373	-0.00937	7.25482	2174.0
34.0686	67.9492	0.46	0.06	-30.00	-20.00	7.373	-0.01190	7.25481	1466.0
34.0886	67.9492	0.46	0.06	-30.00	-20.00	7.373	-0.01443	7.25481	946.0
34.1086	67.9492	0.46	0.06	-30.00	-20.00	7.373	-0.01697	7.25480	580.0
34.1286	67.9492	0.46	0.06	-30.00	-20.00	7.373	-0.01950	7.25480	270.0
34.1486	67.9492	0.46	0.06	-30.00	-20.00	7.373	-0.02203	7.25479	198.0
34.1686	67.9492	0.46	0.06	-30.00	-20.00	7.373	-0.02456	7.25478	102.0
34.1886	67.9492	0.46	0.06	-30.00	-20.00	7.373	-0.02710	7.25477	34.0
34.2086	67.9492	0.46	0.06	-30.00	-20.00	7.373	-0.02963	7.25476	12.0
34.2286	67.9492	0.46	0.06	-30.00	-20.00	7.373	-0.03216	7.25475	6.0
34.2486	67.9492	0.46	0.06	-30.00	-20.00	7.373	-0.03469	7.25474	4.0
34.2686	67.9492	0.46	0.06	-30.00	-20.00	7.373	-0.03723	7.25473	2.0
34.2886	67.9492	0.46	0.06	-30.00	-20.00	7.373	-0.03976	7.25472	2.0
34.3086	67.9492	0.46	0.06	-30.00	-20.00	7.373	-0.04229	7.25470	2.0
34.3286	67.9492	0.46	0.06	-30.00	-20.00	7.373	-0.04482	7.25469	0.0
34.3486	67.9492	0.46	0.06	-30.00	-20.00	7.373	-0.04736	7.25467	4.0
34.3686	67.9492	0.46	0.06	-30.00	-20.00	7.373	-0.04989	7.25465	0.0
34.3886	67.9492	0.46	0.06	-30.00	-20.00	7.373	-0.05242	7.25463	0.0
34.4086	67.9492	0.46	0.06	-30.00	-20.00	7.373	-0.05495	7.25462	0.0
34.4286	67.9492	0.46	0.06	-30.00	-20.00	7.373	-0.05749	7.25460	0.0
34.4486	67.9492	0.46	0.06	-30.00	-20.00	7.373	-0.06002	7.25458	0.0
34.4686	67.9492	0.46	0.06	-30.00	-20.00	7.373	-0.06255	7.25455	2.0
34.4886	67.9492	0.46	0.06	-30.00	-20.00	7.373	-0.06508	7.25453	0.0
34.5086	67.9492	0.46	0.06	-30.00	-20.00	7.373	-0.06761	7.25451	2.0
34.5286	67.9492	0.46	0.06	-30.00	-20.00	7.373	-0.07015	7.25449	4.0
34.5486	67.9492	0.46	0.06	-30.00	-20.00	7.373	-0.07268	7.25446	0.0
34.5686	67.9492	0.46	0.06	-30.00	-20.00	7.373	-0.07521	7.25443	0.0
34.5886	67.9492	0.46	0.06	-30.00	-20.00	7.373	-0.07774	7.25441	0.0
34.6086	67.9492	0.46	0.06	-30.00	-20.00	7.373	-0.08028	7.25438	4.0
34.6286	67.9492	0.46	0.06	-30.00	-20.00	7.373	-0.08281	7.25435	0.0
34.6486	67.9492	0.46	0.06	-30.00	-20.00	7.373	-0.08534	7.25432	0.0
34.6686	67.9492	0.46	0.06	-30.00	-20.00	7.373	-0.08787	7.25429	2.0
34.6886	67.9492	0.46	0.06	-30.00	-20.00	7.373	-0.09040	7.25426	0.0
34.7086	67.9492	0.46	0.06	-30.00	-20.00	7.373	-0.09294	7.25423	0.0
34.7286	67.9492	0.46	0.06	-30.00	-20.00	7.373	-0.09547	7.25420	0.0
34.7486	67.9492	0.46	0.06	-30.00	-20.00	7.373	-0.09800	7.25416	0.0
34.7686	67.9492	0.46	0.06	-30.00	-20.00	7.373	-0.10053	7.25413	0.0
34.7886	67.9492	0.46	0.06	-30.00	-20.00	7.373	-0.10307	7.25409	2.0
34.8086	67.9492	0.46	0.06	-30.00	-20.00	7.373	-0.10560	7.25406	0.0