Folder: Thesis_XRD/Data/113xx/Omega

File: 1.5deg-2.0deg-rsm-2h30mins_11352-as-grown_004_w-scans.dat
# filename: 1.5deg-2.0deg-rsm-2h30mins_11352-as-grown_004.dat
# reflection: (004)
# type: rotated into a series of omega scans
# x-axis: Omega_2Theta
#
# Omega	2Theta	Phi  	Chi   	X    	Y    	Z    	q_para	q_perp	Intensity
# [deg]	[deg] 	[deg]	[deg] 	[mm] 	[mm] 	[mm] 	[nm-1]	[nm-1]	[counts/s]
32.2032	66.6696	1.28	-0.03	-30.00	20.00	7.317	0.14089	7.13276	0.0
32.2232	66.6696	1.28	-0.03	-30.00	20.00	7.317	0.13840	7.13281	2.0
32.2432	66.6696	1.28	-0.03	-30.00	20.00	7.317	0.13591	7.13286	0.0
32.2632	66.6696	1.28	-0.03	-30.00	20.00	7.317	0.13342	7.13291	0.0
32.2832	66.6696	1.28	-0.03	-30.00	20.00	7.317	0.13093	7.13295	0.0
32.3032	66.6696	1.28	-0.03	-30.00	20.00	7.317	0.12844	7.13300	2.0
32.3232	66.6696	1.28	-0.03	-30.00	20.00	7.317	0.12595	7.13304	0.0
32.3432	66.6696	1.28	-0.03	-30.00	20.00	7.317	0.12346	7.13309	0.0
32.3632	66.6696	1.28	-0.03	-30.00	20.00	7.317	0.12097	7.13313	0.0
32.3832	66.6696	1.28	-0.03	-30.00	20.00	7.317	0.11848	7.13317	0.0
32.4032	66.6696	1.28	-0.03	-30.00	20.00	7.317	0.11599	7.13321	0.0
32.4232	66.6696	1.28	-0.03	-30.00	20.00	7.317	0.11350	7.13325	0.0
32.4432	66.6696	1.28	-0.03	-30.00	20.00	7.317	0.11101	7.13329	0.0
32.4632	66.6696	1.28	-0.03	-30.00	20.00	7.317	0.10852	7.13333	0.0
32.4832	66.6696	1.28	-0.03	-30.00	20.00	7.317	0.10603	7.13337	0.0
32.5032	66.6696	1.28	-0.03	-30.00	20.00	7.317	0.10354	7.13340	4.0
32.5232	66.6696	1.28	-0.03	-30.00	20.00	7.317	0.10105	7.13344	2.0
32.5432	66.6696	1.28	-0.03	-30.00	20.00	7.317	0.09856	7.13347	2.0
32.5632	66.6696	1.28	-0.03	-30.00	20.00	7.317	0.09607	7.13351	0.0
32.5832	66.6696	1.28	-0.03	-30.00	20.00	7.317	0.09358	7.13354	0.0
32.6032	66.6696	1.28	-0.03	-30.00	20.00	7.317	0.09109	7.13357	4.0
32.6232	66.6696	1.28	-0.03	-30.00	20.00	7.317	0.08860	7.13360	0.0
32.6432	66.6696	1.28	-0.03	-30.00	20.00	7.317	0.08611	7.13363	0.0
32.6632	66.6696	1.28	-0.03	-30.00	20.00	7.317	0.08362	7.13366	0.0
32.6832	66.6696	1.28	-0.03	-30.00	20.00	7.317	0.08113	7.13369	0.0
32.7032	66.6696	1.28	-0.03	-30.00	20.00	7.317	0.07864	7.13372	0.0
32.7232	66.6696	1.28	-0.03	-30.00	20.00	7.317	0.07615	7.13375	0.0
32.7432	66.6696	1.28	-0.03	-30.00	20.00	7.317	0.07366	7.13377	0.0
32.7632	66.6696	1.28	-0.03	-30.00	20.00	7.317	0.07117	7.13380	0.0
32.7832	66.6696	1.28	-0.03	-30.00	20.00	7.317	0.06868	7.13382	0.0
32.8032	66.6696	1.28	-0.03	-30.00	20.00	7.317	0.06619	7.13385	0.0
32.8232	66.6696	1.28	-0.03	-30.00	20.00	7.317	0.06370	7.13387	2.0
32.8432	66.6696	1.28	-0.03	-30.00	20.00	7.317	0.06121	7.13389	0.0
32.8632	66.6696	1.28	-0.03	-30.00	20.00	7.317	0.05872	7.13391	0.0
32.8832	66.6696	1.28	-0.03	-30.00	20.00	7.317	0.05623	7.13393	0.0
32.9032	66.6696	1.28	-0.03	-30.00	20.00	7.317	0.05374	7.13395	2.0
32.9232	66.6696	1.28	-0.03	-30.00	20.00	7.317	0.05125	7.13397	0.0
32.9432	66.6696	1.28	-0.03	-30.00	20.00	7.317	0.04876	7.13399	2.0
32.9632	66.6696	1.28	-0.03	-30.00	20.00	7.317	0.04627	7.13400	2.0
32.9832	66.6696	1.28	-0.03	-30.00	20.00	7.317	0.04378	7.13402	0.0
33.0032	66.6696	1.28	-0.03	-30.00	20.00	7.317	0.04129	7.13404	0.0
33.0232	66.6696	1.28	-0.03	-30.00	20.00	7.317	0.03880	7.13405	2.0
33.0432	66.6696	1.28	-0.03	-30.00	20.00	7.317	0.03631	7.13406	0.0
33.0632	66.6696	1.28	-0.03	-30.00	20.00	7.317	0.03382	7.13407	2.0
33.0832	66.6696	1.28	-0.03	-30.00	20.00	7.317	0.03133	7.13409	0.0
33.1032	66.6696	1.28	-0.03	-30.00	20.00	7.317	0.02884	7.13410	4.0
33.1232	66.6696	1.28	-0.03	-30.00	20.00	7.317	0.02635	7.13411	0.0
33.1432	66.6696	1.28	-0.03	-30.00	20.00	7.317	0.02386	7.13411	2.0
33.1632	66.6696	1.28	-0.03	-30.00	20.00	7.317	0.02137	7.13412	0.0
33.1832	66.6696	1.28	-0.03	-30.00	20.00	7.317	0.01888	7.13413	0.0
33.2032	66.6696	1.28	-0.03	-30.00	20.00	7.317	0.01639	7.13414	0.0
33.2232	66.6696	1.28	-0.03	-30.00	20.00	7.317	0.01390	7.13414	2.0
33.2432	66.6696	1.28	-0.03	-30.00	20.00	7.317	0.01141	7.13415	2.0
33.2632	66.6696	1.28	-0.03	-30.00	20.00	7.317	0.00892	7.13415	0.0
33.2832	66.6696	1.28	-0.03	-30.00	20.00	7.317	0.00642	7.13415	6.0
33.3032	66.6696	1.28	-0.03	-30.00	20.00	7.317	0.00393	7.13415	2.0
33.3232	66.6696	1.28	-0.03	-30.00	20.00	7.317	0.00144	7.13415	0.0
33.3432	66.6696	1.28	-0.03	-30.00	20.00	7.317	-0.00105	7.13415	0.0
33.3632	66.6696	1.28	-0.03	-30.00	20.00	7.317	-0.00354	7.13415	2.0
33.3832	66.6696	1.28	-0.03	-30.00	20.00	7.317	-0.00603	7.13415	2.0
33.4032	66.6696	1.28	-0.03	-30.00	20.00	7.317	-0.00852	7.13415	0.0
33.4232	66.6696	1.28	-0.03	-30.00	20.00	7.317	-0.01101	7.13415	2.0
33.4432	66.6696	1.28	-0.03	-30.00	20.00	7.317	-0.01350	7.13414	0.0
33.4632	66.6696	1.28	-0.03	-30.00	20.00	7.317	-0.01599	7.13414	0.0
33.4832	66.6696	1.28	-0.03	-30.00	20.00	7.317	-0.01848	7.13413	0.0
33.5032	66.6696	1.28	-0.03	-30.00	20.00	7.317	-0.02097	7.13412	0.0
33.5232	66.6696	1.28	-0.03	-30.00	20.00	7.317	-0.02346	7.13412	0.0
33.5432	66.6696	1.28	-0.03	-30.00	20.00	7.317	-0.02595	7.13411	0.0
33.5632	66.6696	1.28	-0.03	-30.00	20.00	7.317	-0.02844	7.13410	0.0
33.5832	66.6696	1.28	-0.03	-30.00	20.00	7.317	-0.03093	7.13409	0.0
33.6032	66.6696	1.28	-0.03	-30.00	20.00	7.317	-0.03342	7.13408	2.0
33.6232	66.6696	1.28	-0.03	-30.00	20.00	7.317	-0.03591	7.13406	0.0
33.6432	66.6696	1.28	-0.03	-30.00	20.00	7.317	-0.03840	7.13405	0.0
33.6632	66.6696	1.28	-0.03	-30.00	20.00	7.317	-0.04089	7.13404	0.0
33.6832	66.6696	1.28	-0.03	-30.00	20.00	7.317	-0.04338	7.13402	0.0
33.7032	66.6696	1.28	-0.03	-30.00	20.00	7.317	-0.04587	7.13401	0.0
33.7232	66.6696	1.28	-0.03	-30.00	20.00	7.317	-0.04836	7.13399	4.0
33.7432	66.6696	1.28	-0.03	-30.00	20.00	7.317	-0.05085	7.13397	0.0
33.7632	66.6696	1.28	-0.03	-30.00	20.00	7.317	-0.05334	7.13396	2.0
33.7832	66.6696	1.28	-0.03	-30.00	20.00	7.317	-0.05583	7.13394	0.0
33.8032	66.6696	1.28	-0.03	-30.00	20.00	7.317	-0.05832	7.13392	2.0
33.8232	66.6696	1.28	-0.03	-30.00	20.00	7.317	-0.06081	7.13390	0.0
33.8432	66.6696	1.28	-0.03	-30.00	20.00	7.317	-0.06330	7.13387	0.0
33.8632	66.6696	1.28	-0.03	-30.00	20.00	7.317	-0.06579	7.13385	4.0
33.8832	66.6696	1.28	-0.03	-30.00	20.00	7.317	-0.06828	7.13383	0.0
33.9032	66.6696	1.28	-0.03	-30.00	20.00	7.317	-0.07077	7.13380	2.0
33.9232	66.6696	1.28	-0.03	-30.00	20.00	7.317	-0.07326	7.13378	2.0
33.9432	66.6696	1.28	-0.03	-30.00	20.00	7.317	-0.07575	7.13375	0.0
33.9632	66.6696	1.28	-0.03	-30.00	20.00	7.317	-0.07824	7.13373	4.0
33.9832	66.6696	1.28	-0.03	-30.00	20.00	7.317	-0.08073	7.13370	0.0
34.0032	66.6696	1.28	-0.03	-30.00	20.00	7.317	-0.08322	7.13367	0.0
34.0232	66.6696	1.28	-0.03	-30.00	20.00	7.317	-0.08571	7.13364	2.0
34.0432	66.6696	1.28	-0.03	-30.00	20.00	7.317	-0.08820	7.13361	0.0
34.0632	66.6696	1.28	-0.03	-30.00	20.00	7.317	-0.09069	7.13358	2.0
34.0832	66.6696	1.28	-0.03	-30.00	20.00	7.317	-0.09318	7.13355	2.0
34.1032	66.6696	1.28	-0.03	-30.00	20.00	7.317	-0.09567	7.13351	4.0
34.1232	66.6696	1.28	-0.03	-30.00	20.00	7.317	-0.09816	7.13348	2.0
34.1432	66.6696	1.28	-0.03	-30.00	20.00	7.317	-0.10065	7.13344	2.0
34.1632	66.6696	1.28	-0.03	-30.00	20.00	7.317	-0.10314	7.13341	2.0
34.1832	66.6696	1.28	-0.03	-30.00	20.00	7.317	-0.10563	7.13337	0.0
34.2032	66.6696	1.28	-0.03	-30.00	20.00	7.317	-0.10812	7.13334	0.0

32.2132	66.6896	1.28	-0.03	-30.00	20.00	7.317	0.14093	7.13466	0.0
32.2332	66.6896	1.28	-0.03	-30.00	20.00	7.317	0.13844	7.13470	2.0
32.2532	66.6896	1.28	-0.03	-30.00	20.00	7.317	0.13595	7.13475	2.0
32.2732	66.6896	1.28	-0.03	-30.00	20.00	7.317	0.13346	7.13480	2.0
[...]
34.6232	69.6296	1.28	-0.03	-30.00	20.00	7.317	0.02479	7.41187	0.0
34.6432	69.6296	1.28	-0.03	-30.00	20.00	7.317	0.02220	7.41188	4.0
34.6632	69.6296	1.28	-0.03	-30.00	20.00	7.317	0.01961	7.41189	0.0
34.6832	69.6296	1.28	-0.03	-30.00	20.00	7.317	0.01702	7.41189	0.0
34.7032	69.6296	1.28	-0.03	-30.00	20.00	7.317	0.01444	7.41190	4.0
34.7232	69.6296	1.28	-0.03	-30.00	20.00	7.317	0.01185	7.41190	6.0
34.7432	69.6296	1.28	-0.03	-30.00	20.00	7.317	0.00926	7.41191	6.0
34.7632	69.6296	1.28	-0.03	-30.00	20.00	7.317	0.00668	7.41191	2.0
34.7832	69.6296	1.28	-0.03	-30.00	20.00	7.317	0.00409	7.41191	8.0
34.8032	69.6296	1.28	-0.03	-30.00	20.00	7.317	0.00150	7.41191	4.0
34.8232	69.6296	1.28	-0.03	-30.00	20.00	7.317	-0.00109	7.41191	2.0
34.8432	69.6296	1.28	-0.03	-30.00	20.00	7.317	-0.00367	7.41191	2.0
34.8632	69.6296	1.28	-0.03	-30.00	20.00	7.317	-0.00626	7.41191	2.0
34.8832	69.6296	1.28	-0.03	-30.00	20.00	7.317	-0.00885	7.41191	0.0
34.9032	69.6296	1.28	-0.03	-30.00	20.00	7.317	-0.01144	7.41191	0.0
34.9232	69.6296	1.28	-0.03	-30.00	20.00	7.317	-0.01402	7.41190	4.0
34.9432	69.6296	1.28	-0.03	-30.00	20.00	7.317	-0.01661	7.41190	0.0
34.9632	69.6296	1.28	-0.03	-30.00	20.00	7.317	-0.01920	7.41189	2.0
34.9832	69.6296	1.28	-0.03	-30.00	20.00	7.317	-0.02178	7.41188	2.0
35.0032	69.6296	1.28	-0.03	-30.00	20.00	7.317	-0.02437	7.41187	2.0
35.0232	69.6296	1.28	-0.03	-30.00	20.00	7.317	-0.02696	7.41187	4.0
35.0432	69.6296	1.28	-0.03	-30.00	20.00	7.317	-0.02955	7.41186	2.0
35.0632	69.6296	1.28	-0.03	-30.00	20.00	7.317	-0.03213	7.41184	0.0
35.0832	69.6296	1.28	-0.03	-30.00	20.00	7.317	-0.03472	7.41183	0.0
35.1032	69.6296	1.28	-0.03	-30.00	20.00	7.317	-0.03731	7.41182	0.0
35.1232	69.6296	1.28	-0.03	-30.00	20.00	7.317	-0.03990	7.41181	0.0
35.1432	69.6296	1.28	-0.03	-30.00	20.00	7.317	-0.04248	7.41179	4.0
35.1632	69.6296	1.28	-0.03	-30.00	20.00	7.317	-0.04507	7.41178	2.0
35.1832	69.6296	1.28	-0.03	-30.00	20.00	7.317	-0.04766	7.41176	0.0
35.2032	69.6296	1.28	-0.03	-30.00	20.00	7.317	-0.05024	7.41174	0.0
35.2232	69.6296	1.28	-0.03	-30.00	20.00	7.317	-0.05283	7.41173	0.0
35.2432	69.6296	1.28	-0.03	-30.00	20.00	7.317	-0.05542	7.41171	2.0
35.2632	69.6296	1.28	-0.03	-30.00	20.00	7.317	-0.05801	7.41169	2.0
35.2832	69.6296	1.28	-0.03	-30.00	20.00	7.317	-0.06059	7.41167	0.0
35.3032	69.6296	1.28	-0.03	-30.00	20.00	7.317	-0.06318	7.41164	4.0
35.3232	69.6296	1.28	-0.03	-30.00	20.00	7.317	-0.06577	7.41162	0.0
35.3432	69.6296	1.28	-0.03	-30.00	20.00	7.317	-0.06835	7.41160	0.0
35.3632	69.6296	1.28	-0.03	-30.00	20.00	7.317	-0.07094	7.41157	0.0
35.3832	69.6296	1.28	-0.03	-30.00	20.00	7.317	-0.07353	7.41155	0.0
35.4032	69.6296	1.28	-0.03	-30.00	20.00	7.317	-0.07612	7.41152	2.0
35.4232	69.6296	1.28	-0.03	-30.00	20.00	7.317	-0.07870	7.41150	2.0
35.4432	69.6296	1.28	-0.03	-30.00	20.00	7.317	-0.08129	7.41147	0.0
35.4632	69.6296	1.28	-0.03	-30.00	20.00	7.317	-0.08388	7.41144	0.0
35.4832	69.6296	1.28	-0.03	-30.00	20.00	7.317	-0.08646	7.41141	4.0
35.5032	69.6296	1.28	-0.03	-30.00	20.00	7.317	-0.08905	7.41138	0.0
35.5232	69.6296	1.28	-0.03	-30.00	20.00	7.317	-0.09164	7.41135	4.0
35.5432	69.6296	1.28	-0.03	-30.00	20.00	7.317	-0.09422	7.41132	2.0
35.5632	69.6296	1.28	-0.03	-30.00	20.00	7.317	-0.09681	7.41128	2.0
35.5832	69.6296	1.28	-0.03	-30.00	20.00	7.317	-0.09940	7.41125	0.0
35.6032	69.6296	1.28	-0.03	-30.00	20.00	7.317	-0.10199	7.41121	0.0
35.6232	69.6296	1.28	-0.03	-30.00	20.00	7.317	-0.10457	7.41118	2.0
35.6432	69.6296	1.28	-0.03	-30.00	20.00	7.317	-0.10716	7.41114	0.0
35.6632	69.6296	1.28	-0.03	-30.00	20.00	7.317	-0.10975	7.41110	6.0
35.6832	69.6296	1.28	-0.03	-30.00	20.00	7.317	-0.11233	7.41106	4.0

File: 1.5deg-2.0deg-rsm-2h30mins_11354-annealed_004_w-scans.dat
# filename: 1.5deg-2.0deg-rsm-2h30mins_11354-annealed_004.dat
# reflection: (004)
# type: rotated into a series of omega scans
# x-axis: Omega_2Theta
#
# Omega	2Theta	Phi  	Chi   	X    	Y    	Z    	q_para	q_perp	Intensity
# [deg]	[deg] 	[deg]	[deg] 	[mm] 	[mm] 	[mm] 	[nm-1]	[nm-1]	[counts/s]
32.8539	66.6702	-0.10	0.00	0.00	-22.75	7.333	0.05992	7.13396	0.0
32.8739	66.6702	-0.10	0.00	0.00	-22.75	7.333	0.05743	7.13398	2.0
32.8939	66.6702	-0.10	0.00	0.00	-22.75	7.333	0.05494	7.13400	0.0
32.9139	66.6702	-0.10	0.00	0.00	-22.75	7.333	0.05245	7.13402	0.0
32.9339	66.6702	-0.10	0.00	0.00	-22.75	7.333	0.04996	7.13404	6.0
32.9539	66.6702	-0.10	0.00	0.00	-22.75	7.333	0.04746	7.13405	0.0
32.9739	66.6702	-0.10	0.00	0.00	-22.75	7.333	0.04497	7.13407	0.0
32.9939	66.6702	-0.10	0.00	0.00	-22.75	7.333	0.04248	7.13408	0.0
33.0139	66.6702	-0.10	0.00	0.00	-22.75	7.333	0.03999	7.13410	0.0
33.0339	66.6702	-0.10	0.00	0.00	-22.75	7.333	0.03750	7.13411	0.0
33.0539	66.6702	-0.10	0.00	0.00	-22.75	7.333	0.03501	7.13413	4.0
33.0739	66.6702	-0.10	0.00	0.00	-22.75	7.333	0.03252	7.13414	0.0
33.0939	66.6702	-0.10	0.00	0.00	-22.75	7.333	0.03003	7.13415	0.0
33.1139	66.6702	-0.10	0.00	0.00	-22.75	7.333	0.02754	7.13416	2.0
33.1339	66.6702	-0.10	0.00	0.00	-22.75	7.333	0.02505	7.13417	0.0
33.1539	66.6702	-0.10	0.00	0.00	-22.75	7.333	0.02256	7.13418	0.0
33.1739	66.6702	-0.10	0.00	0.00	-22.75	7.333	0.02007	7.13418	2.0
33.1939	66.6702	-0.10	0.00	0.00	-22.75	7.333	0.01758	7.13419	0.0
33.2139	66.6702	-0.10	0.00	0.00	-22.75	7.333	0.01509	7.13420	2.0
33.2339	66.6702	-0.10	0.00	0.00	-22.75	7.333	0.01260	7.13420	6.0
33.2539	66.6702	-0.10	0.00	0.00	-22.75	7.333	0.01011	7.13420	2.0
33.2739	66.6702	-0.10	0.00	0.00	-22.75	7.333	0.00762	7.13421	2.0
33.2939	66.6702	-0.10	0.00	0.00	-22.75	7.333	0.00513	7.13421	2.0
33.3139	66.6702	-0.10	0.00	0.00	-22.75	7.333	0.00264	7.13421	0.0
33.3339	66.6702	-0.10	0.00	0.00	-22.75	7.333	0.00015	7.13421	2.0
33.3539	66.6702	-0.10	0.00	0.00	-22.75	7.333	-0.00234	7.13421	0.0
33.3739	66.6702	-0.10	0.00	0.00	-22.75	7.333	-0.00483	7.13421	0.0
33.3939	66.6702	-0.10	0.00	0.00	-22.75	7.333	-0.00732	7.13421	2.0
33.4139	66.6702	-0.10	0.00	0.00	-22.75	7.333	-0.00981	7.13420	0.0
33.4339	66.6702	-0.10	0.00	0.00	-22.75	7.333	-0.01230	7.13420	2.0
33.4539	66.6702	-0.10	0.00	0.00	-22.75	7.333	-0.01479	7.13420	0.0
33.4739	66.6702	-0.10	0.00	0.00	-22.75	7.333	-0.01728	7.13419	0.0
33.4939	66.6702	-0.10	0.00	0.00	-22.75	7.333	-0.01977	7.13418	0.0
33.5139	66.6702	-0.10	0.00	0.00	-22.75	7.333	-0.02226	7.13418	0.0
33.5339	66.6702	-0.10	0.00	0.00	-22.75	7.333	-0.02475	7.13417	0.0
33.5539	66.6702	-0.10	0.00	0.00	-22.75	7.333	-0.02724	7.13416	2.0
33.5739	66.6702	-0.10	0.00	0.00	-22.75	7.333	-0.02973	7.13415	2.0
33.5939	66.6702	-0.10	0.00	0.00	-22.75	7.333	-0.03222	7.13414	0.0
33.6139	66.6702	-0.10	0.00	0.00	-22.75	7.333	-0.03471	7.13413	0.0
33.6339	66.6702	-0.10	0.00	0.00	-22.75	7.333	-0.03721	7.13411	2.0
33.6539	66.6702	-0.10	0.00	0.00	-22.75	7.333	-0.03970	7.13410	0.0
33.6739	66.6702	-0.10	0.00	0.00	-22.75	7.333	-0.04219	7.13409	2.0
33.6939	66.6702	-0.10	0.00	0.00	-22.75	7.333	-0.04468	7.13407	0.0
33.7139	66.6702	-0.10	0.00	0.00	-22.75	7.333	-0.04717	7.13406	2.0
33.7339	66.6702	-0.10	0.00	0.00	-22.75	7.333	-0.04966	7.13404	0.0
33.7539	66.6702	-0.10	0.00	0.00	-22.75	7.333	-0.05215	7.13402	0.0
33.7739	66.6702	-0.10	0.00	0.00	-22.75	7.333	-0.05464	7.13400	2.0
33.7939	66.6702	-0.10	0.00	0.00	-22.75	7.333	-0.05713	7.13398	0.0
33.8139	66.6702	-0.10	0.00	0.00	-22.75	7.333	-0.05962	7.13396	2.0
33.8339	66.6702	-0.10	0.00	0.00	-22.75	7.333	-0.06211	7.13394	0.0
33.8539	66.6702	-0.10	0.00	0.00	-22.75	7.333	-0.06460	7.13392	4.0
33.8739	66.6702	-0.10	0.00	0.00	-22.75	7.333	-0.06709	7.13390	2.0
33.8939	66.6702	-0.10	0.00	0.00	-22.75	7.333	-0.06958	7.13387	0.0
33.9139	66.6702	-0.10	0.00	0.00	-22.75	7.333	-0.07207	7.13385	0.0
33.9339	66.6702	-0.10	0.00	0.00	-22.75	7.333	-0.07456	7.13382	0.0
33.9539	66.6702	-0.10	0.00	0.00	-22.75	7.333	-0.07705	7.13380	0.0
33.9739	66.6702	-0.10	0.00	0.00	-22.75	7.333	-0.07954	7.13377	0.0
33.9939	66.6702	-0.10	0.00	0.00	-22.75	7.333	-0.08203	7.13374	0.0
34.0139	66.6702	-0.10	0.00	0.00	-22.75	7.333	-0.08452	7.13371	2.0
34.0339	66.6702	-0.10	0.00	0.00	-22.75	7.333	-0.08701	7.13368	0.0
34.0539	66.6702	-0.10	0.00	0.00	-22.75	7.333	-0.08950	7.13365	0.0
34.0739	66.6702	-0.10	0.00	0.00	-22.75	7.333	-0.09199	7.13362	0.0
34.0939	66.6702	-0.10	0.00	0.00	-22.75	7.333	-0.09448	7.13359	0.0
34.1139	66.6702	-0.10	0.00	0.00	-22.75	7.333	-0.09697	7.13355	2.0
34.1339	66.6702	-0.10	0.00	0.00	-22.75	7.333	-0.09946	7.13352	0.0
34.1539	66.6702	-0.10	0.00	0.00	-22.75	7.333	-0.10195	7.13348	2.0
34.1739	66.6702	-0.10	0.00	0.00	-22.75	7.333	-0.10444	7.13345	0.0
34.1939	66.6702	-0.10	0.00	0.00	-22.75	7.333	-0.10693	7.13341	0.0
34.2139	66.6702	-0.10	0.00	0.00	-22.75	7.333	-0.10942	7.13337	0.0
34.2339	66.6702	-0.10	0.00	0.00	-22.75	7.333	-0.11191	7.13333	0.0
34.2539	66.6702	-0.10	0.00	0.00	-22.75	7.333	-0.11440	7.13329	0.0
34.2739	66.6702	-0.10	0.00	0.00	-22.75	7.333	-0.11689	7.13325	0.0
34.2939	66.6702	-0.10	0.00	0.00	-22.75	7.333	-0.11938	7.13321	2.0
34.3139	66.6702	-0.10	0.00	0.00	-22.75	7.333	-0.12187	7.13317	0.0
34.3339	66.6702	-0.10	0.00	0.00	-22.75	7.333	-0.12436	7.13313	0.0
34.3539	66.6702	-0.10	0.00	0.00	-22.75	7.333	-0.12685	7.13308	0.0
34.3739	66.6702	-0.10	0.00	0.00	-22.75	7.333	-0.12934	7.13304	2.0
34.3939	66.6702	-0.10	0.00	0.00	-22.75	7.333	-0.13183	7.13299	2.0
34.4139	66.6702	-0.10	0.00	0.00	-22.75	7.333	-0.13432	7.13295	2.0
34.4339	66.6702	-0.10	0.00	0.00	-22.75	7.333	-0.13681	7.13290	4.0
34.4539	66.6702	-0.10	0.00	0.00	-22.75	7.333	-0.13930	7.13285	0.0
34.4739	66.6702	-0.10	0.00	0.00	-22.75	7.333	-0.14179	7.13280	0.0
34.4939	66.6702	-0.10	0.00	0.00	-22.75	7.333	-0.14428	7.13275	0.0
34.5139	66.6702	-0.10	0.00	0.00	-22.75	7.333	-0.14677	7.13270	0.0
34.5339	66.6702	-0.10	0.00	0.00	-22.75	7.333	-0.14926	7.13265	0.0
34.5539	66.6702	-0.10	0.00	0.00	-22.75	7.333	-0.15175	7.13260	0.0
34.5739	66.6702	-0.10	0.00	0.00	-22.75	7.333	-0.15424	7.13254	2.0
34.5939	66.6702	-0.10	0.00	0.00	-22.75	7.333	-0.15673	7.13249	6.0
34.6139	66.6702	-0.10	0.00	0.00	-22.75	7.333	-0.15922	7.13243	0.0
34.6339	66.6702	-0.10	0.00	0.00	-22.75	7.333	-0.16171	7.13238	2.0
34.6539	66.6702	-0.10	0.00	0.00	-22.75	7.333	-0.16420	7.13232	2.0
34.6739	66.6702	-0.10	0.00	0.00	-22.75	7.333	-0.16669	7.13226	0.0
34.6939	66.6702	-0.10	0.00	0.00	-22.75	7.333	-0.16918	7.13221	2.0
34.7139	66.6702	-0.10	0.00	0.00	-22.75	7.333	-0.17167	7.13215	6.0
34.7339	66.6702	-0.10	0.00	0.00	-22.75	7.333	-0.17415	7.13209	2.0
34.7539	66.6702	-0.10	0.00	0.00	-22.75	7.333	-0.17664	7.13202	0.0
34.7739	66.6702	-0.10	0.00	0.00	-22.75	7.333	-0.17913	7.13196	0.0
34.7939	66.6702	-0.10	0.00	0.00	-22.75	7.333	-0.18162	7.13190	2.0
34.8139	66.6702	-0.10	0.00	0.00	-22.75	7.333	-0.18411	7.13184	0.0
34.8339	66.6702	-0.10	0.00	0.00	-22.75	7.333	-0.18660	7.13177	0.0
34.8539	66.6702	-0.10	0.00	0.00	-22.75	7.333	-0.18909	7.13170	2.0

32.8639	66.6902	-0.10	0.00	0.00	-22.75	7.333	0.05993	7.13585	2.0
32.8839	66.6902	-0.10	0.00	0.00	-22.75	7.333	0.05744	7.13587	2.0
32.9039	66.6902	-0.10	0.00	0.00	-22.75	7.333	0.05495	7.13589	2.0
32.9239	66.6902	-0.10	0.00	0.00	-22.75	7.333	0.05246	7.13591	0.0
32.9439	66.6902	-0.10	0.00	0.00	-22.75	7.333	0.04997	7.13593	2.0
32.9639	66.6902	-0.10	0.00	0.00	-22.75	7.333	0.04748	7.13595	0.0
[...]
35.2539	69.6302	-0.10	0.00	0.00	-22.75	7.333	-0.05676	7.41175	0.0
35.2739	69.6302	-0.10	0.00	0.00	-22.75	7.333	-0.05935	7.41173	2.0
35.2939	69.6302	-0.10	0.00	0.00	-22.75	7.333	-0.06194	7.41171	0.0
35.3139	69.6302	-0.10	0.00	0.00	-22.75	7.333	-0.06453	7.41169	2.0
35.3339	69.6302	-0.10	0.00	0.00	-22.75	7.333	-0.06711	7.41167	2.0
35.3539	69.6302	-0.10	0.00	0.00	-22.75	7.333	-0.06970	7.41164	2.0
35.3739	69.6302	-0.10	0.00	0.00	-22.75	7.333	-0.07229	7.41162	2.0
35.3939	69.6302	-0.10	0.00	0.00	-22.75	7.333	-0.07487	7.41159	2.0
35.4139	69.6302	-0.10	0.00	0.00	-22.75	7.333	-0.07746	7.41157	4.0
35.4339	69.6302	-0.10	0.00	0.00	-22.75	7.333	-0.08005	7.41154	0.0
35.4539	69.6302	-0.10	0.00	0.00	-22.75	7.333	-0.08264	7.41151	0.0
35.4739	69.6302	-0.10	0.00	0.00	-22.75	7.333	-0.08522	7.41148	0.0
35.4939	69.6302	-0.10	0.00	0.00	-22.75	7.333	-0.08781	7.41145	0.0
35.5139	69.6302	-0.10	0.00	0.00	-22.75	7.333	-0.09040	7.41142	0.0
35.5339	69.6302	-0.10	0.00	0.00	-22.75	7.333	-0.09298	7.41139	4.0
35.5539	69.6302	-0.10	0.00	0.00	-22.75	7.333	-0.09557	7.41135	2.0
35.5739	69.6302	-0.10	0.00	0.00	-22.75	7.333	-0.09816	7.41132	4.0
35.5939	69.6302	-0.10	0.00	0.00	-22.75	7.333	-0.10075	7.41129	4.0
35.6139	69.6302	-0.10	0.00	0.00	-22.75	7.333	-0.10333	7.41125	2.0
35.6339	69.6302	-0.10	0.00	0.00	-22.75	7.333	-0.10592	7.41121	2.0
35.6539	69.6302	-0.10	0.00	0.00	-22.75	7.333	-0.10851	7.41118	0.0
35.6739	69.6302	-0.10	0.00	0.00	-22.75	7.333	-0.11109	7.41114	0.0
35.6939	69.6302	-0.10	0.00	0.00	-22.75	7.333	-0.11368	7.41110	0.0
35.7139	69.6302	-0.10	0.00	0.00	-22.75	7.333	-0.11627	7.41106	2.0
35.7339	69.6302	-0.10	0.00	0.00	-22.75	7.333	-0.11885	7.41102	4.0
35.7539	69.6302	-0.10	0.00	0.00	-22.75	7.333	-0.12144	7.41097	0.0
35.7739	69.6302	-0.10	0.00	0.00	-22.75	7.333	-0.12403	7.41093	0.0
35.7939	69.6302	-0.10	0.00	0.00	-22.75	7.333	-0.12661	7.41089	2.0
35.8139	69.6302	-0.10	0.00	0.00	-22.75	7.333	-0.12920	7.41084	4.0
35.8339	69.6302	-0.10	0.00	0.00	-22.75	7.333	-0.13179	7.41080	2.0
35.8539	69.6302	-0.10	0.00	0.00	-22.75	7.333	-0.13438	7.41075	6.0
35.8739	69.6302	-0.10	0.00	0.00	-22.75	7.333	-0.13696	7.41070	0.0
35.8939	69.6302	-0.10	0.00	0.00	-22.75	7.333	-0.13955	7.41066	2.0
35.9139	69.6302	-0.10	0.00	0.00	-22.75	7.333	-0.14214	7.41061	0.0
35.9339	69.6302	-0.10	0.00	0.00	-22.75	7.333	-0.14472	7.41056	0.0
35.9539	69.6302	-0.10	0.00	0.00	-22.75	7.333	-0.14731	7.41051	2.0
35.9739	69.6302	-0.10	0.00	0.00	-22.75	7.333	-0.14990	7.41045	2.0
35.9939	69.6302	-0.10	0.00	0.00	-22.75	7.333	-0.15248	7.41040	4.0
36.0139	69.6302	-0.10	0.00	0.00	-22.75	7.333	-0.15507	7.41035	0.0
36.0339	69.6302	-0.10	0.00	0.00	-22.75	7.333	-0.15766	7.41029	2.0
36.0539	69.6302	-0.10	0.00	0.00	-22.75	7.333	-0.16024	7.41024	0.0
36.0739	69.6302	-0.10	0.00	0.00	-22.75	7.333	-0.16283	7.41018	0.0
36.0939	69.6302	-0.10	0.00	0.00	-22.75	7.333	-0.16542	7.41012	0.0
36.1139	69.6302	-0.10	0.00	0.00	-22.75	7.333	-0.16800	7.41007	2.0
36.1339	69.6302	-0.10	0.00	0.00	-22.75	7.333	-0.17059	7.41001	0.0
36.1539	69.6302	-0.10	0.00	0.00	-22.75	7.333	-0.17318	7.40995	0.0
36.1739	69.6302	-0.10	0.00	0.00	-22.75	7.333	-0.17576	7.40989	0.0
36.1939	69.6302	-0.10	0.00	0.00	-22.75	7.333	-0.17835	7.40982	2.0
36.2139	69.6302	-0.10	0.00	0.00	-22.75	7.333	-0.18094	7.40976	0.0
36.2339	69.6302	-0.10	0.00	0.00	-22.75	7.333	-0.18352	7.40970	0.0
36.2539	69.6302	-0.10	0.00	0.00	-22.75	7.333	-0.18611	7.40963	4.0
36.2739	69.6302	-0.10	0.00	0.00	-22.75	7.333	-0.18869	7.40957	2.0
36.2939	69.6302	-0.10	0.00	0.00	-22.75	7.333	-0.19128	7.40950	0.0
36.3139	69.6302	-0.10	0.00	0.00	-22.75	7.333	-0.19387	7.40943	0.0
36.3339	69.6302	-0.10	0.00	0.00	-22.75	7.333	-0.19645	7.40937	0.0