Folder: Thesis_XRD/Data/113xx/Omega2Theta (part 3)

File: 2.0deg-2.0deg-rsm-3h10m_11355-annealed_224_w_000-100.dat
# filename: 2.0deg-2.0deg-rsm-3h10m_11355-annealed_224.dat
# reflection: (004)
# type: Projection of 100 omega2theta scans
# x-axis: omega2theta
#
# Omega	2Theta	Phi  	Chi   	X    	Y    	Z    	q_para	q_perp	Intensity
# [deg]	[deg] 	[deg]	[deg] 	[mm] 	[mm] 	[mm] 	[nm-1]	[nm-1]	[counts/s]
7.6828	84.9998	-0.70	0.35	0.00	15.50	7.376	5.00744	7.20017	1.1
7.7028	85.0398	-0.70	0.35	0.00	15.50	7.376	5.00934	7.20291	1.1
7.7228	85.0798	-0.70	0.35	0.00	15.50	7.376	5.01125	7.20565	1.5
7.7428	85.1198	-0.70	0.35	0.00	15.50	7.376	5.01316	7.20840	1.7
7.7628	85.1598	-0.70	0.35	0.00	15.50	7.376	5.01506	7.21114	1.0
7.7828	85.1998	-0.70	0.35	0.00	15.50	7.376	5.01697	7.21387	1.1
7.8028	85.2398	-0.70	0.35	0.00	15.50	7.376	5.01887	7.21661	1.2
7.8228	85.2798	-0.70	0.35	0.00	15.50	7.376	5.02077	7.21935	1.6
7.8428	85.3198	-0.70	0.35	0.00	15.50	7.376	5.02268	7.22209	1.3
7.8628	85.3598	-0.70	0.35	0.00	15.50	7.376	5.02458	7.22482	0.8
7.8828	85.3998	-0.70	0.35	0.00	15.50	7.376	5.02648	7.22756	0.9
7.9028	85.4398	-0.70	0.35	0.00	15.50	7.376	5.02838	7.23029	1.4
7.9228	85.4798	-0.70	0.35	0.00	15.50	7.376	5.03028	7.23302	1.5
7.9428	85.5198	-0.70	0.35	0.00	15.50	7.376	5.03218	7.23575	1.7
7.9628	85.5598	-0.70	0.35	0.00	15.50	7.376	5.03408	7.23848	1.4
7.9828	85.5998	-0.70	0.35	0.00	15.50	7.376	5.03598	7.24121	1.3
8.0028	85.6398	-0.70	0.35	0.00	15.50	7.376	5.03788	7.24394	1.4
8.0228	85.6798	-0.70	0.35	0.00	15.50	7.376	5.03978	7.24667	1.7
8.0428	85.7198	-0.70	0.35	0.00	15.50	7.376	5.04167	7.24940	1.6
8.0628	85.7598	-0.70	0.35	0.00	15.50	7.376	5.04357	7.25213	1.9
8.0828	85.7998	-0.70	0.35	0.00	15.50	7.376	5.04546	7.25485	1.9
8.1028	85.8398	-0.70	0.35	0.00	15.50	7.376	5.04736	7.25758	1.9
8.1228	85.8798	-0.70	0.35	0.00	15.50	7.376	5.04925	7.26030	2.1
8.1428	85.9198	-0.70	0.35	0.00	15.50	7.376	5.05115	7.26302	1.9
8.1628	85.9598	-0.70	0.35	0.00	15.50	7.376	5.05304	7.26575	2.5
8.1828	85.9998	-0.70	0.35	0.00	15.50	7.376	5.05493	7.26847	2.7
8.2028	86.0398	-0.70	0.35	0.00	15.50	7.376	5.05683	7.27119	2.5
8.2228	86.0798	-0.70	0.35	0.00	15.50	7.376	5.05872	7.27391	3.3
8.2428	86.1198	-0.70	0.35	0.00	15.50	7.376	5.06061	7.27663	3.8
8.2628	86.1598	-0.70	0.35	0.00	15.50	7.376	5.06250	7.27934	5.7
8.2828	86.1998	-0.70	0.35	0.00	15.50	7.376	5.06439	7.28206	12.8
8.3028	86.2398	-0.70	0.35	0.00	15.50	7.376	5.06628	7.28478	72.8
8.3228	86.2798	-0.70	0.35	0.00	15.50	7.376	5.06816	7.28749	834.0
8.3428	86.3198	-0.70	0.35	0.00	15.50	7.376	5.07005	7.29020	2513.6
8.3628	86.3598	-0.70	0.35	0.00	15.50	7.376	5.07194	7.29292	385.1
8.3828	86.3998	-0.70	0.35	0.00	15.50	7.376	5.07382	7.29563	181.7
8.4028	86.4398	-0.70	0.35	0.00	15.50	7.376	5.07571	7.29834	168.1
8.4228	86.4798	-0.70	0.35	0.00	15.50	7.376	5.07760	7.30105	167.1
8.4428	86.5198	-0.70	0.35	0.00	15.50	7.376	5.07948	7.30376	159.2
8.4628	86.5598	-0.70	0.35	0.00	15.50	7.376	5.08136	7.30647	157.1
8.4828	86.5998	-0.70	0.35	0.00	15.50	7.376	5.08325	7.30918	156.7
8.5028	86.6398	-0.70	0.35	0.00	15.50	7.376	5.08513	7.31189	160.4
8.5228	86.6798	-0.70	0.35	0.00	15.50	7.376	5.08701	7.31459	157.4
8.5428	86.7198	-0.70	0.35	0.00	15.50	7.376	5.08889	7.31730	146.5
8.5628	86.7598	-0.70	0.35	0.00	15.50	7.376	5.09077	7.32000	141.4
8.5828	86.7998	-0.70	0.35	0.00	15.50	7.376	5.09265	7.32271	132.8
8.6028	86.8398	-0.70	0.35	0.00	15.50	7.376	5.09453	7.32541	129.4
8.6228	86.8798	-0.70	0.35	0.00	15.50	7.376	5.09641	7.32811	126.4
8.6428	86.9198	-0.70	0.35	0.00	15.50	7.376	5.09829	7.33081	118.9
8.6628	86.9598	-0.70	0.35	0.00	15.50	7.376	5.10017	7.33351	115.0
8.6828	86.9998	-0.70	0.35	0.00	15.50	7.376	5.10205	7.33621	116.2
8.7028	87.0398	-0.70	0.35	0.00	15.50	7.376	5.10392	7.33891	115.5
8.7228	87.0798	-0.70	0.35	0.00	15.50	7.376	5.10580	7.34160	109.7
8.7428	87.1198	-0.70	0.35	0.00	15.50	7.376	5.10767	7.34430	105.6
8.7628	87.1598	-0.70	0.35	0.00	15.50	7.376	5.10955	7.34700	103.8
8.7828	87.1998	-0.70	0.35	0.00	15.50	7.376	5.11142	7.34969	100.8
8.8028	87.2398	-0.70	0.35	0.00	15.50	7.376	5.11329	7.35238	97.2
8.8228	87.2798	-0.70	0.35	0.00	15.50	7.376	5.11517	7.35508	98.5
8.8428	87.3198	-0.70	0.35	0.00	15.50	7.376	5.11704	7.35777	93.8
8.8628	87.3598	-0.70	0.35	0.00	15.50	7.376	5.11891	7.36046	89.1
8.8828	87.3998	-0.70	0.35	0.00	15.50	7.376	5.12078	7.36315	87.0
8.9028	87.4398	-0.70	0.35	0.00	15.50	7.376	5.12265	7.36584	85.1
8.9228	87.4798	-0.70	0.35	0.00	15.50	7.376	5.12452	7.36853	82.9
8.9428	87.5198	-0.70	0.35	0.00	15.50	7.376	5.12639	7.37121	81.3
8.9628	87.5598	-0.70	0.35	0.00	15.50	7.376	5.12826	7.37390	78.7
8.9828	87.5998	-0.70	0.35	0.00	15.50	7.376	5.13013	7.37659	75.1
9.0028	87.6398	-0.70	0.35	0.00	15.50	7.376	5.13199	7.37927	73.5
9.0228	87.6798	-0.70	0.35	0.00	15.50	7.376	5.13386	7.38196	70.5
9.0428	87.7198	-0.70	0.35	0.00	15.50	7.376	5.13573	7.38464	68.5
9.0628	87.7598	-0.70	0.35	0.00	15.50	7.376	5.13759	7.38732	70.3
9.0828	87.7998	-0.70	0.35	0.00	15.50	7.376	5.13946	7.39000	65.4
9.1028	87.8398	-0.70	0.35	0.00	15.50	7.376	5.14132	7.39268	61.4
9.1228	87.8798	-0.70	0.35	0.00	15.50	7.376	5.14318	7.39536	60.1
9.1428	87.9198	-0.70	0.35	0.00	15.50	7.376	5.14505	7.39804	85.7
9.1628	87.9598	-0.70	0.35	0.00	15.50	7.376	5.14691	7.40072	655.7
9.1828	87.9998	-0.70	0.35	0.00	15.50	7.376	5.14877	7.40339	791.1
9.2028	88.0398	-0.70	0.35	0.00	15.50	7.376	5.15063	7.40607	49.1
9.2228	88.0798	-0.70	0.35	0.00	15.50	7.376	5.15249	7.40874	6.4
9.2428	88.1198	-0.70	0.35	0.00	15.50	7.376	5.15435	7.41142	4.3
9.2628	88.1598	-0.70	0.35	0.00	15.50	7.376	5.15621	7.41409	3.6
9.2828	88.1998	-0.70	0.35	0.00	15.50	7.376	5.15807	7.41676	3.4
9.3028	88.2398	-0.70	0.35	0.00	15.50	7.376	5.15992	7.41943	3.2
9.3228	88.2798	-0.70	0.35	0.00	15.50	7.376	5.16178	7.42210	3.0
9.3428	88.3198	-0.70	0.35	0.00	15.50	7.376	5.16364	7.42477	2.3
9.3628	88.3598	-0.70	0.35	0.00	15.50	7.376	5.16549	7.42744	2.1
9.3828	88.3998	-0.70	0.35	0.00	15.50	7.376	5.16735	7.43011	1.8
9.4028	88.4398	-0.70	0.35	0.00	15.50	7.376	5.16920	7.43278	1.9
9.4228	88.4798	-0.70	0.35	0.00	15.50	7.376	5.17106	7.43544	1.7
9.4428	88.5198	-0.70	0.35	0.00	15.50	7.376	5.17291	7.43811	1.6
9.4628	88.5598	-0.70	0.35	0.00	15.50	7.376	5.17476	7.44077	1.6
9.4828	88.5998	-0.70	0.35	0.00	15.50	7.376	5.17662	7.44343	1.5
9.5028	88.6398	-0.70	0.35	0.00	15.50	7.376	5.17847	7.44609	1.5
9.5228	88.6798	-0.70	0.35	0.00	15.50	7.376	5.18032	7.44876	1.5
9.5428	88.7198	-0.70	0.35	0.00	15.50	7.376	5.18217	7.45142	1.5
9.5628	88.7598	-0.70	0.35	0.00	15.50	7.376	5.18402	7.45407	1.6
9.5828	88.7998	-0.70	0.35	0.00	15.50	7.376	5.18587	7.45673	1.2
9.6028	88.8398	-0.70	0.35	0.00	15.50	7.376	5.18771	7.45939	1.3
9.6228	88.8798	-0.70	0.35	0.00	15.50	7.376	5.18956	7.46205	1.3
9.6428	88.9198	-0.70	0.35	0.00	15.50	7.376	5.19141	7.46470	1.2
9.6628	88.9598	-0.70	0.35	0.00	15.50	7.376	5.19325	7.46736	1.1

File: 2.0deg-2.0deg-rsm-3h10m_11355-as-grown_224_w_000-100.dat
# filename: 2.0deg-2.0deg-rsm-3h10m_11355-as-grown_224.dat
# reflection: (004)
# type: Projection of 100 omega2theta scans
# x-axis: omega2theta
#
# Omega	2Theta	Phi  	Chi   	X    	Y    	Z    	q_para	q_perp	Intensity
# [deg]	[deg] 	[deg]	[deg] 	[mm] 	[mm] 	[mm] 	[nm-1]	[nm-1]	[counts/s]
7.1078	85.0726	0.46	0.10	-30.00	-20.00	7.373	5.08751	7.15128	1.2
7.1278	85.1126	0.46	0.10	-30.00	-20.00	7.373	5.08944	7.15400	1.4
7.1478	85.1526	0.46	0.10	-30.00	-20.00	7.373	5.09138	7.15672	1.4
7.1678	85.1926	0.46	0.10	-30.00	-20.00	7.373	5.09331	7.15944	1.6
7.1878	85.2326	0.46	0.10	-30.00	-20.00	7.373	5.09524	7.16216	1.2
7.2078	85.2726	0.46	0.10	-30.00	-20.00	7.373	5.09718	7.16487	1.3
7.2278	85.3126	0.46	0.10	-30.00	-20.00	7.373	5.09911	7.16759	1.5
7.2478	85.3526	0.46	0.10	-30.00	-20.00	7.373	5.10104	7.17031	1.5
7.2678	85.3926	0.46	0.10	-30.00	-20.00	7.373	5.10297	7.17302	1.4
7.2878	85.4326	0.46	0.10	-30.00	-20.00	7.373	5.10490	7.17573	1.5
7.3078	85.4726	0.46	0.10	-30.00	-20.00	7.373	5.10683	7.17844	1.7
7.3278	85.5126	0.46	0.10	-30.00	-20.00	7.373	5.10876	7.18116	1.7
7.3478	85.5526	0.46	0.10	-30.00	-20.00	7.373	5.11069	7.18387	1.5
7.3678	85.5926	0.46	0.10	-30.00	-20.00	7.373	5.11262	7.18658	2.1
7.3878	85.6326	0.46	0.10	-30.00	-20.00	7.373	5.11454	7.18929	1.8
7.4078	85.6726	0.46	0.10	-30.00	-20.00	7.373	5.11647	7.19199	1.8
7.4278	85.7126	0.46	0.10	-30.00	-20.00	7.373	5.11840	7.19470	1.8
7.4478	85.7526	0.46	0.10	-30.00	-20.00	7.373	5.12032	7.19741	2.3
7.4678	85.7926	0.46	0.10	-30.00	-20.00	7.373	5.12225	7.20011	1.9
7.4878	85.8326	0.46	0.10	-30.00	-20.00	7.373	5.12417	7.20282	1.7
7.5078	85.8726	0.46	0.10	-30.00	-20.00	7.373	5.12609	7.20552	2.0
7.5278	85.9126	0.46	0.10	-30.00	-20.00	7.373	5.12802	7.20822	2.5
7.5478	85.9526	0.46	0.10	-30.00	-20.00	7.373	5.12994	7.21093	2.8
7.5678	85.9926	0.46	0.10	-30.00	-20.00	7.373	5.13186	7.21363	2.8
7.5878	86.0326	0.46	0.10	-30.00	-20.00	7.373	5.13378	7.21633	3.1
7.6078	86.0726	0.46	0.10	-30.00	-20.00	7.373	5.13570	7.21903	3.3
7.6278	86.1126	0.46	0.10	-30.00	-20.00	7.373	5.13762	7.22172	3.1
7.6478	86.1526	0.46	0.10	-30.00	-20.00	7.373	5.13954	7.22442	4.0
7.6678	86.1926	0.46	0.10	-30.00	-20.00	7.373	5.14146	7.22712	4.6
7.6878	86.2326	0.46	0.10	-30.00	-20.00	7.373	5.14338	7.22982	6.4
7.7078	86.2726	0.46	0.10	-30.00	-20.00	7.373	5.14529	7.23251	11.0
7.7278	86.3126	0.46	0.10	-30.00	-20.00	7.373	5.14721	7.23520	45.9
7.7478	86.3526	0.46	0.10	-30.00	-20.00	7.373	5.14913	7.23790	678.4
7.7678	86.3926	0.46	0.10	-30.00	-20.00	7.373	5.15104	7.24059	2890.7
7.7878	86.4326	0.46	0.10	-30.00	-20.00	7.373	5.15296	7.24328	647.3
7.8078	86.4726	0.46	0.10	-30.00	-20.00	7.373	5.15487	7.24597	223.8
7.8278	86.5126	0.46	0.10	-30.00	-20.00	7.373	5.15678	7.24866	190.8
7.8478	86.5526	0.46	0.10	-30.00	-20.00	7.373	5.15870	7.25135	183.2
7.8678	86.5926	0.46	0.10	-30.00	-20.00	7.373	5.16061	7.25404	180.0
7.8878	86.6326	0.46	0.10	-30.00	-20.00	7.373	5.16252	7.25672	172.6
7.9078	86.6726	0.46	0.10	-30.00	-20.00	7.373	5.16443	7.25941	172.9
7.9278	86.7126	0.46	0.10	-30.00	-20.00	7.373	5.16634	7.26210	172.4
7.9478	86.7526	0.46	0.10	-30.00	-20.00	7.373	5.16825	7.26478	165.0
7.9678	86.7926	0.46	0.10	-30.00	-20.00	7.373	5.17016	7.26746	158.6
7.9878	86.8326	0.46	0.10	-30.00	-20.00	7.373	5.17207	7.27015	153.3
8.0078	86.8726	0.46	0.10	-30.00	-20.00	7.373	5.17398	7.27283	139.7
8.0278	86.9126	0.46	0.10	-30.00	-20.00	7.373	5.17588	7.27551	137.3
8.0478	86.9526	0.46	0.10	-30.00	-20.00	7.373	5.17779	7.27819	130.2
8.0678	86.9926	0.46	0.10	-30.00	-20.00	7.373	5.17970	7.28087	122.5
8.0878	87.0326	0.46	0.10	-30.00	-20.00	7.373	5.18160	7.28354	121.8
8.1078	87.0726	0.46	0.10	-30.00	-20.00	7.373	5.18351	7.28622	121.6
8.1278	87.1126	0.46	0.10	-30.00	-20.00	7.373	5.18541	7.28890	120.5
8.1478	87.1526	0.46	0.10	-30.00	-20.00	7.373	5.18731	7.29157	114.4
8.1678	87.1926	0.46	0.10	-30.00	-20.00	7.373	5.18921	7.29425	111.9
8.1878	87.2326	0.46	0.10	-30.00	-20.00	7.373	5.19112	7.29692	105.1
8.2078	87.2726	0.46	0.10	-30.00	-20.00	7.373	5.19302	7.29959	105.4
8.2278	87.3126	0.46	0.10	-30.00	-20.00	7.373	5.19492	7.30227	102.0
8.2478	87.3526	0.46	0.10	-30.00	-20.00	7.373	5.19682	7.30494	100.7
8.2678	87.3926	0.46	0.10	-30.00	-20.00	7.373	5.19872	7.30761	97.3
8.2878	87.4326	0.46	0.10	-30.00	-20.00	7.373	5.20062	7.31028	94.0
8.3078	87.4726	0.46	0.10	-30.00	-20.00	7.373	5.20252	7.31294	91.7
8.3278	87.5126	0.46	0.10	-30.00	-20.00	7.373	5.20441	7.31561	86.1
8.3478	87.5526	0.46	0.10	-30.00	-20.00	7.373	5.20631	7.31828	85.9
8.3678	87.5926	0.46	0.10	-30.00	-20.00	7.373	5.20821	7.32094	86.1
8.3878	87.6326	0.46	0.10	-30.00	-20.00	7.373	5.21010	7.32361	81.6
8.4078	87.6726	0.46	0.10	-30.00	-20.00	7.373	5.21200	7.32627	78.0
8.4278	87.7126	0.46	0.10	-30.00	-20.00	7.373	5.21389	7.32894	76.1
8.4478	87.7526	0.46	0.10	-30.00	-20.00	7.373	5.21579	7.33160	72.9
8.4678	87.7926	0.46	0.10	-30.00	-20.00	7.373	5.21768	7.33426	70.4
8.4878	87.8326	0.46	0.10	-30.00	-20.00	7.373	5.21957	7.33692	70.9
8.5078	87.8726	0.46	0.10	-30.00	-20.00	7.373	5.22146	7.33958	67.3
8.5278	87.9126	0.46	0.10	-30.00	-20.00	7.373	5.22336	7.34224	65.4
8.5478	87.9526	0.46	0.10	-30.00	-20.00	7.373	5.22525	7.34490	60.3
8.5678	87.9926	0.46	0.10	-30.00	-20.00	7.373	5.22714	7.34755	74.0
8.5878	88.0326	0.46	0.10	-30.00	-20.00	7.373	5.22903	7.35021	855.7
8.6078	88.0726	0.46	0.10	-30.00	-20.00	7.373	5.23091	7.35286	913.4
8.6278	88.1126	0.46	0.10	-30.00	-20.00	7.373	5.23280	7.35552	110.7
8.6478	88.1526	0.46	0.10	-30.00	-20.00	7.373	5.23469	7.35817	10.9
8.6678	88.1926	0.46	0.10	-30.00	-20.00	7.373	5.23658	7.36082	5.6
8.6878	88.2326	0.46	0.10	-30.00	-20.00	7.373	5.23846	7.36347	3.3
8.7078	88.2726	0.46	0.10	-30.00	-20.00	7.373	5.24035	7.36612	2.4
8.7278	88.3126	0.46	0.10	-30.00	-20.00	7.373	5.24223	7.36877	2.4
8.7478	88.3526	0.46	0.10	-30.00	-20.00	7.373	5.24412	7.37142	2.3
8.7678	88.3926	0.46	0.10	-30.00	-20.00	7.373	5.24600	7.37407	2.4
8.7878	88.4326	0.46	0.10	-30.00	-20.00	7.373	5.24788	7.37672	2.0
8.8078	88.4726	0.46	0.10	-30.00	-20.00	7.373	5.24977	7.37936	1.8
8.8278	88.5126	0.46	0.10	-30.00	-20.00	7.373	5.25165	7.38201	1.9
8.8478	88.5526	0.46	0.10	-30.00	-20.00	7.373	5.25353	7.38465	2.1
8.8678	88.5926	0.46	0.10	-30.00	-20.00	7.373	5.25541	7.38729	1.8
8.8878	88.6326	0.46	0.10	-30.00	-20.00	7.373	5.25729	7.38994	1.6
8.9078	88.6726	0.46	0.10	-30.00	-20.00	7.373	5.25917	7.39258	1.7
8.9278	88.7126	0.46	0.10	-30.00	-20.00	7.373	5.26105	7.39522	1.7
8.9478	88.7526	0.46	0.10	-30.00	-20.00	7.373	5.26292	7.39786	1.9
8.9678	88.7926	0.46	0.10	-30.00	-20.00	7.373	5.26480	7.40050	1.6
8.9878	88.8326	0.46	0.10	-30.00	-20.00	7.373	5.26668	7.40314	1.3
9.0078	88.8726	0.46	0.10	-30.00	-20.00	7.373	5.26855	7.40577	1.5
9.0278	88.9126	0.46	0.10	-30.00	-20.00	7.373	5.27043	7.40841	1.4
9.0478	88.9526	0.46	0.10	-30.00	-20.00	7.373	5.27230	7.41104	1.4
9.0678	88.9926	0.46	0.10	-30.00	-20.00	7.373	5.27418	7.41368	1.4
9.0878	89.0326	0.46	0.10	-30.00	-20.00	7.373	5.27605	7.41631	1.5

File: 2.0deg-2.0deg-rsm-3h10m_11358-as-grown_224_w_000-100.dat
# filename: 2.0deg-2.0deg-rsm-3h10m_11358-as-grown_224.dat
# reflection: (004)
# type: Projection of 100 omega2theta scans
# x-axis: omega2theta
#
# Omega	2Theta	Phi  	Chi   	X    	Y    	Z    	q_para	q_perp	Intensity
# [deg]	[deg] 	[deg]	[deg] 	[mm] 	[mm] 	[mm] 	[nm-1]	[nm-1]	[counts/s]
7.0787	85.0734	2.82	0.06	10.00	-20.00	7.326	5.09123	7.14872	1.3
7.0987	85.1134	2.82	0.06	10.00	-20.00	7.326	5.09316	7.15143	1.4
7.1187	85.1534	2.82	0.06	10.00	-20.00	7.326	5.09510	7.15415	1.1
7.1387	85.1934	2.82	0.06	10.00	-20.00	7.326	5.09703	7.15687	1.7
7.1587	85.2334	2.82	0.06	10.00	-20.00	7.326	5.09897	7.15959	1.6
7.1787	85.2734	2.82	0.06	10.00	-20.00	7.326	5.10090	7.16230	1.3
7.1987	85.3134	2.82	0.06	10.00	-20.00	7.326	5.10284	7.16502	1.8
7.2187	85.3534	2.82	0.06	10.00	-20.00	7.326	5.10477	7.16773	1.5
7.2387	85.3934	2.82	0.06	10.00	-20.00	7.326	5.10670	7.17044	1.5
7.2587	85.4334	2.82	0.06	10.00	-20.00	7.326	5.10863	7.17316	1.4
7.2787	85.4734	2.82	0.06	10.00	-20.00	7.326	5.11057	7.17587	1.9
7.2987	85.5134	2.82	0.06	10.00	-20.00	7.326	5.11250	7.17858	1.7
7.3187	85.5534	2.82	0.06	10.00	-20.00	7.326	5.11443	7.18129	1.8
7.3387	85.5934	2.82	0.06	10.00	-20.00	7.326	5.11635	7.18400	2.0
7.3587	85.6334	2.82	0.06	10.00	-20.00	7.326	5.11828	7.18671	1.4
7.3787	85.6734	2.82	0.06	10.00	-20.00	7.326	5.12021	7.18941	1.7
7.3987	85.7134	2.82	0.06	10.00	-20.00	7.326	5.12214	7.19212	1.7
7.4187	85.7534	2.82	0.06	10.00	-20.00	7.326	5.12406	7.19482	1.8
7.4387	85.7934	2.82	0.06	10.00	-20.00	7.326	5.12599	7.19753	2.3
7.4587	85.8334	2.82	0.06	10.00	-20.00	7.326	5.12792	7.20023	2.0
7.4787	85.8734	2.82	0.06	10.00	-20.00	7.326	5.12984	7.20293	2.2
7.4987	85.9134	2.82	0.06	10.00	-20.00	7.326	5.13177	7.20564	2.9
7.5187	85.9534	2.82	0.06	10.00	-20.00	7.326	5.13369	7.20834	2.6
7.5387	85.9934	2.82	0.06	10.00	-20.00	7.326	5.13561	7.21104	2.2
7.5587	86.0334	2.82	0.06	10.00	-20.00	7.326	5.13753	7.21374	3.2
7.5787	86.0734	2.82	0.06	10.00	-20.00	7.326	5.13946	7.21644	3.0
7.5987	86.1134	2.82	0.06	10.00	-20.00	7.326	5.14138	7.21913	3.3
7.6187	86.1534	2.82	0.06	10.00	-20.00	7.326	5.14330	7.22183	3.8
7.6387	86.1934	2.82	0.06	10.00	-20.00	7.326	5.14522	7.22452	4.1
7.6587	86.2334	2.82	0.06	10.00	-20.00	7.326	5.14714	7.22722	6.0
7.6787	86.2734	2.82	0.06	10.00	-20.00	7.326	5.14905	7.22991	11.2
7.6987	86.3134	2.82	0.06	10.00	-20.00	7.326	5.15097	7.23261	43.6
7.7187	86.3534	2.82	0.06	10.00	-20.00	7.326	5.15289	7.23530	621.0
7.7387	86.3934	2.82	0.06	10.00	-20.00	7.326	5.15481	7.23799	2797.5
7.7587	86.4334	2.82	0.06	10.00	-20.00	7.326	5.15672	7.24068	661.0
7.7787	86.4734	2.82	0.06	10.00	-20.00	7.326	5.15864	7.24337	215.1
7.7987	86.5134	2.82	0.06	10.00	-20.00	7.326	5.16055	7.24606	182.5
7.8187	86.5534	2.82	0.06	10.00	-20.00	7.326	5.16247	7.24875	174.5
7.8387	86.5934	2.82	0.06	10.00	-20.00	7.326	5.16438	7.25143	168.9
7.8587	86.6334	2.82	0.06	10.00	-20.00	7.326	5.16629	7.25412	168.3
7.8787	86.6734	2.82	0.06	10.00	-20.00	7.326	5.16821	7.25680	170.0
7.8987	86.7134	2.82	0.06	10.00	-20.00	7.326	5.17012	7.25949	170.3
7.9187	86.7534	2.82	0.06	10.00	-20.00	7.326	5.17203	7.26217	161.6
7.9387	86.7934	2.82	0.06	10.00	-20.00	7.326	5.17394	7.26485	152.9
7.9587	86.8334	2.82	0.06	10.00	-20.00	7.326	5.17585	7.26754	145.5
7.9787	86.8734	2.82	0.06	10.00	-20.00	7.326	5.17776	7.27022	139.9
7.9987	86.9134	2.82	0.06	10.00	-20.00	7.326	5.17967	7.27290	134.6
8.0187	86.9534	2.82	0.06	10.00	-20.00	7.326	5.18157	7.27557	129.0
8.0387	86.9934	2.82	0.06	10.00	-20.00	7.326	5.18348	7.27825	128.2
8.0587	87.0334	2.82	0.06	10.00	-20.00	7.326	5.18539	7.28093	123.0
8.0787	87.0734	2.82	0.06	10.00	-20.00	7.326	5.18729	7.28361	118.8
8.0987	87.1134	2.82	0.06	10.00	-20.00	7.326	5.18920	7.28628	116.4
8.1187	87.1534	2.82	0.06	10.00	-20.00	7.326	5.19110	7.28896	115.0
8.1387	87.1934	2.82	0.06	10.00	-20.00	7.326	5.19301	7.29163	111.0
8.1587	87.2334	2.82	0.06	10.00	-20.00	7.326	5.19491	7.29430	103.8
8.1787	87.2734	2.82	0.06	10.00	-20.00	7.326	5.19681	7.29697	101.6
8.1987	87.3134	2.82	0.06	10.00	-20.00	7.326	5.19872	7.29964	97.2
8.2187	87.3534	2.82	0.06	10.00	-20.00	7.326	5.20062	7.30231	98.0
8.2387	87.3934	2.82	0.06	10.00	-20.00	7.326	5.20252	7.30498	95.1
8.2587	87.4334	2.82	0.06	10.00	-20.00	7.326	5.20442	7.30765	92.0
8.2787	87.4734	2.82	0.06	10.00	-20.00	7.326	5.20632	7.31032	91.4
8.2987	87.5134	2.82	0.06	10.00	-20.00	7.326	5.20822	7.31299	85.2
8.3187	87.5534	2.82	0.06	10.00	-20.00	7.326	5.21012	7.31565	85.9
8.3387	87.5934	2.82	0.06	10.00	-20.00	7.326	5.21201	7.31832	85.2
8.3587	87.6334	2.82	0.06	10.00	-20.00	7.326	5.21391	7.32098	81.4
8.3787	87.6734	2.82	0.06	10.00	-20.00	7.326	5.21581	7.32364	79.5
8.3987	87.7134	2.82	0.06	10.00	-20.00	7.326	5.21770	7.32630	76.2
8.4187	87.7534	2.82	0.06	10.00	-20.00	7.326	5.21960	7.32897	74.7
8.4387	87.7934	2.82	0.06	10.00	-20.00	7.326	5.22149	7.33162	73.5
8.4587	87.8334	2.82	0.06	10.00	-20.00	7.326	5.22339	7.33428	72.4
8.4787	87.8734	2.82	0.06	10.00	-20.00	7.326	5.22528	7.33694	67.5
8.4987	87.9134	2.82	0.06	10.00	-20.00	7.326	5.22717	7.33960	64.1
8.5187	87.9534	2.82	0.06	10.00	-20.00	7.326	5.22906	7.34226	61.4
8.5387	87.9934	2.82	0.06	10.00	-20.00	7.326	5.23096	7.34491	74.0
8.5587	88.0334	2.82	0.06	10.00	-20.00	7.326	5.23285	7.34757	585.8
8.5787	88.0734	2.82	0.06	10.00	-20.00	7.326	5.23474	7.35022	729.4
8.5987	88.1134	2.82	0.06	10.00	-20.00	7.326	5.23663	7.35287	110.1
8.6187	88.1534	2.82	0.06	10.00	-20.00	7.326	5.23852	7.35553	12.2
8.6387	88.1934	2.82	0.06	10.00	-20.00	7.326	5.24040	7.35818	5.0
8.6587	88.2334	2.82	0.06	10.00	-20.00	7.326	5.24229	7.36083	3.8
8.6787	88.2734	2.82	0.06	10.00	-20.00	7.326	5.24418	7.36348	2.5
8.6987	88.3134	2.82	0.06	10.00	-20.00	7.326	5.24606	7.36613	2.4
8.7187	88.3534	2.82	0.06	10.00	-20.00	7.326	5.24795	7.36877	2.4
8.7387	88.3934	2.82	0.06	10.00	-20.00	7.326	5.24983	7.37142	2.0
8.7587	88.4334	2.82	0.06	10.00	-20.00	7.326	5.25172	7.37407	1.6
8.7787	88.4734	2.82	0.06	10.00	-20.00	7.326	5.25360	7.37671	1.9
8.7987	88.5134	2.82	0.06	10.00	-20.00	7.326	5.25549	7.37936	1.7
8.8187	88.5534	2.82	0.06	10.00	-20.00	7.326	5.25737	7.38200	1.6
8.8387	88.5934	2.82	0.06	10.00	-20.00	7.326	5.25925	7.38464	1.5
8.8587	88.6334	2.82	0.06	10.00	-20.00	7.326	5.26113	7.38728	1.5
8.8787	88.6734	2.82	0.06	10.00	-20.00	7.326	5.26301	7.38992	1.5
8.8987	88.7134	2.82	0.06	10.00	-20.00	7.326	5.26489	7.39256	1.2
8.9187	88.7534	2.82	0.06	10.00	-20.00	7.326	5.26677	7.39520	1.6
8.9387	88.7934	2.82	0.06	10.00	-20.00	7.326	5.26865	7.39784	1.5
8.9587	88.8334	2.82	0.06	10.00	-20.00	7.326	5.27053	7.40047	1.7
8.9787	88.8734	2.82	0.06	10.00	-20.00	7.326	5.27240	7.40311	1.5
8.9987	88.9134	2.82	0.06	10.00	-20.00	7.326	5.27428	7.40575	1.7
9.0187	88.9534	2.82	0.06	10.00	-20.00	7.326	5.27616	7.40838	1.1
9.0387	88.9934	2.82	0.06	10.00	-20.00	7.326	5.27803	7.41101	1.5
9.0587	89.0334	2.82	0.06	10.00	-20.00	7.326	5.27991	7.41365	1.4