Folder: Thesis_XRD/Data/113xx/Omega (part 3)

File: 2.0deg-2.0deg-rsm-3h10mins_11354-as-grown_224_w-scans.dat
# filename: 2.0deg-2.0deg-rsm-3h10mins_11354-as-grown_224.dat
# reflection: (004)
# type: rotated into a series of omega scans
# x-axis: Omega_2Theta
#
# Omega	2Theta	Phi  	Chi   	X    	Y    	Z    	q_para	q_perp	Intensity
# [deg]	[deg] 	[deg]	[deg] 	[mm] 	[mm] 	[mm] 	[nm-1]	[nm-1]	[counts/s]
5.8865	85.0720	1.74	0.08	10.00	20.00	7.278	5.23898	7.04157	0.0
5.9065	85.0720	1.74	0.08	10.00	20.00	7.278	5.23652	7.04340	0.0
5.9265	85.0720	1.74	0.08	10.00	20.00	7.278	5.23406	7.04523	0.0
5.9465	85.0720	1.74	0.08	10.00	20.00	7.278	5.23160	7.04706	0.0
5.9665	85.0720	1.74	0.08	10.00	20.00	7.278	5.22914	7.04888	4.0
5.9865	85.0720	1.74	0.08	10.00	20.00	7.278	5.22668	7.05071	2.0
6.0065	85.0720	1.74	0.08	10.00	20.00	7.278	5.22422	7.05253	0.0
6.0265	85.0720	1.74	0.08	10.00	20.00	7.278	5.22176	7.05435	4.0
6.0465	85.0720	1.74	0.08	10.00	20.00	7.278	5.21929	7.05618	2.0
6.0665	85.0720	1.74	0.08	10.00	20.00	7.278	5.21683	7.05800	0.0
6.0865	85.0720	1.74	0.08	10.00	20.00	7.278	5.21437	7.05982	2.0
6.1065	85.0720	1.74	0.08	10.00	20.00	7.278	5.21190	7.06164	2.0
6.1265	85.0720	1.74	0.08	10.00	20.00	7.278	5.20944	7.06346	2.0
6.1465	85.0720	1.74	0.08	10.00	20.00	7.278	5.20697	7.06527	4.0
6.1665	85.0720	1.74	0.08	10.00	20.00	7.278	5.20450	7.06709	4.0
6.1865	85.0720	1.74	0.08	10.00	20.00	7.278	5.20204	7.06891	2.0
6.2065	85.0720	1.74	0.08	10.00	20.00	7.278	5.19957	7.07072	4.0
6.2265	85.0720	1.74	0.08	10.00	20.00	7.278	5.19710	7.07254	4.0
6.2465	85.0720	1.74	0.08	10.00	20.00	7.278	5.19463	7.07435	0.0
6.2665	85.0720	1.74	0.08	10.00	20.00	7.278	5.19216	7.07616	6.0
6.2865	85.0720	1.74	0.08	10.00	20.00	7.278	5.18969	7.07798	4.0
6.3065	85.0720	1.74	0.08	10.00	20.00	7.278	5.18722	7.07979	6.0
6.3265	85.0720	1.74	0.08	10.00	20.00	7.278	5.18475	7.08160	2.0
6.3465	85.0720	1.74	0.08	10.00	20.00	7.278	5.18228	7.08341	4.0
6.3665	85.0720	1.74	0.08	10.00	20.00	7.278	5.17980	7.08522	2.0
6.3865	85.0720	1.74	0.08	10.00	20.00	7.278	5.17733	7.08702	2.0
6.4065	85.0720	1.74	0.08	10.00	20.00	7.278	5.17486	7.08883	2.0
6.4265	85.0720	1.74	0.08	10.00	20.00	7.278	5.17238	7.09064	2.0
6.4465	85.0720	1.74	0.08	10.00	20.00	7.278	5.16991	7.09244	4.0
6.4665	85.0720	1.74	0.08	10.00	20.00	7.278	5.16743	7.09424	6.0
6.4865	85.0720	1.74	0.08	10.00	20.00	7.278	5.16495	7.09605	0.0
6.5065	85.0720	1.74	0.08	10.00	20.00	7.278	5.16248	7.09785	0.0
6.5265	85.0720	1.74	0.08	10.00	20.00	7.278	5.16000	7.09965	0.0
6.5465	85.0720	1.74	0.08	10.00	20.00	7.278	5.15752	7.10145	0.0
6.5665	85.0720	1.74	0.08	10.00	20.00	7.278	5.15504	7.10325	0.0
6.5865	85.0720	1.74	0.08	10.00	20.00	7.278	5.15256	7.10505	0.0
6.6065	85.0720	1.74	0.08	10.00	20.00	7.278	5.15008	7.10685	2.0
6.6265	85.0720	1.74	0.08	10.00	20.00	7.278	5.14760	7.10865	0.0
6.6465	85.0720	1.74	0.08	10.00	20.00	7.278	5.14512	7.11044	0.0
6.6665	85.0720	1.74	0.08	10.00	20.00	7.278	5.14264	7.11224	2.0
6.6865	85.0720	1.74	0.08	10.00	20.00	7.278	5.14015	7.11403	4.0
6.7065	85.0720	1.74	0.08	10.00	20.00	7.278	5.13767	7.11583	2.0
6.7265	85.0720	1.74	0.08	10.00	20.00	7.278	5.13518	7.11762	4.0
6.7465	85.0720	1.74	0.08	10.00	20.00	7.278	5.13270	7.11941	0.0
6.7665	85.0720	1.74	0.08	10.00	20.00	7.278	5.13021	7.12120	2.0
6.7865	85.0720	1.74	0.08	10.00	20.00	7.278	5.12773	7.12299	2.0
6.8065	85.0720	1.74	0.08	10.00	20.00	7.278	5.12524	7.12478	2.0
6.8265	85.0720	1.74	0.08	10.00	20.00	7.278	5.12275	7.12657	0.0
6.8465	85.0720	1.74	0.08	10.00	20.00	7.278	5.12027	7.12836	4.0
6.8665	85.0720	1.74	0.08	10.00	20.00	7.278	5.11778	7.13015	6.0
6.8865	85.0720	1.74	0.08	10.00	20.00	7.278	5.11529	7.13193	0.0
6.9065	85.0720	1.74	0.08	10.00	20.00	7.278	5.11280	7.13372	8.0
6.9265	85.0720	1.74	0.08	10.00	20.00	7.278	5.11031	7.13550	2.0
6.9465	85.0720	1.74	0.08	10.00	20.00	7.278	5.10782	7.13729	0.0
6.9665	85.0720	1.74	0.08	10.00	20.00	7.278	5.10533	7.13907	0.0
6.9865	85.0720	1.74	0.08	10.00	20.00	7.278	5.10283	7.14085	0.0
7.0065	85.0720	1.74	0.08	10.00	20.00	7.278	5.10034	7.14263	2.0
7.0265	85.0720	1.74	0.08	10.00	20.00	7.278	5.09785	7.14441	2.0
7.0465	85.0720	1.74	0.08	10.00	20.00	7.278	5.09535	7.14619	0.0
7.0665	85.0720	1.74	0.08	10.00	20.00	7.278	5.09286	7.14797	4.0
7.0865	85.0720	1.74	0.08	10.00	20.00	7.278	5.09036	7.14975	4.0
7.1065	85.0720	1.74	0.08	10.00	20.00	7.278	5.08787	7.15152	0.0
7.1265	85.0720	1.74	0.08	10.00	20.00	7.278	5.08537	7.15330	2.0
7.1465	85.0720	1.74	0.08	10.00	20.00	7.278	5.08287	7.15507	0.0
7.1665	85.0720	1.74	0.08	10.00	20.00	7.278	5.08037	7.15685	4.0
7.1865	85.0720	1.74	0.08	10.00	20.00	7.278	5.07788	7.15862	4.0
7.2065	85.0720	1.74	0.08	10.00	20.00	7.278	5.07538	7.16039	4.0
7.2265	85.0720	1.74	0.08	10.00	20.00	7.278	5.07288	7.16216	0.0
7.2465	85.0720	1.74	0.08	10.00	20.00	7.278	5.07038	7.16393	4.0
7.2665	85.0720	1.74	0.08	10.00	20.00	7.278	5.06788	7.16570	2.0
7.2865	85.0720	1.74	0.08	10.00	20.00	7.278	5.06537	7.16747	2.0
7.3065	85.0720	1.74	0.08	10.00	20.00	7.278	5.06287	7.16924	2.0
7.3265	85.0720	1.74	0.08	10.00	20.00	7.278	5.06037	7.17101	0.0
7.3465	85.0720	1.74	0.08	10.00	20.00	7.278	5.05787	7.17277	2.0
7.3665	85.0720	1.74	0.08	10.00	20.00	7.278	5.05536	7.17454	0.0
7.3865	85.0720	1.74	0.08	10.00	20.00	7.278	5.05286	7.17630	0.0
7.4065	85.0720	1.74	0.08	10.00	20.00	7.278	5.05035	7.17806	0.0
7.4265	85.0720	1.74	0.08	10.00	20.00	7.278	5.04785	7.17983	2.0
7.4465	85.0720	1.74	0.08	10.00	20.00	7.278	5.04534	7.18159	0.0
7.4665	85.0720	1.74	0.08	10.00	20.00	7.278	5.04283	7.18335	2.0
7.4865	85.0720	1.74	0.08	10.00	20.00	7.278	5.04032	7.18511	0.0
7.5065	85.0720	1.74	0.08	10.00	20.00	7.278	5.03782	7.18687	0.0
7.5265	85.0720	1.74	0.08	10.00	20.00	7.278	5.03531	7.18863	2.0
7.5465	85.0720	1.74	0.08	10.00	20.00	7.278	5.03280	7.19038	0.0
7.5665	85.0720	1.74	0.08	10.00	20.00	7.278	5.03029	7.19214	0.0
7.5865	85.0720	1.74	0.08	10.00	20.00	7.278	5.02778	7.19389	4.0
7.6065	85.0720	1.74	0.08	10.00	20.00	7.278	5.02526	7.19565	6.0
7.6265	85.0720	1.74	0.08	10.00	20.00	7.278	5.02275	7.19740	0.0
7.6465	85.0720	1.74	0.08	10.00	20.00	7.278	5.02024	7.19916	0.0
7.6665	85.0720	1.74	0.08	10.00	20.00	7.278	5.01773	7.20091	0.0
7.6865	85.0720	1.74	0.08	10.00	20.00	7.278	5.01521	7.20266	0.0
7.7065	85.0720	1.74	0.08	10.00	20.00	7.278	5.01270	7.20441	2.0
7.7265	85.0720	1.74	0.08	10.00	20.00	7.278	5.01018	7.20616	2.0
7.7465	85.0720	1.74	0.08	10.00	20.00	7.278	5.00767	7.20791	4.0
7.7665	85.0720	1.74	0.08	10.00	20.00	7.278	5.00515	7.20965	2.0
7.7865	85.0720	1.74	0.08	10.00	20.00	7.278	5.00263	7.21140	2.0
7.8065	85.0720	1.74	0.08	10.00	20.00	7.278	5.00012	7.21315	2.0
7.8265	85.0720	1.74	0.08	10.00	20.00	7.278	4.99760	7.21489	0.0
7.8465	85.0720	1.74	0.08	10.00	20.00	7.278	4.99508	7.21664	0.0
7.8665	85.0720	1.74	0.08	10.00	20.00	7.278	4.99256	7.21838	0.0
7.8865	85.0720	1.74	0.08	10.00	20.00	7.278	4.99004	7.22012	2.0

5.8965	85.0920	1.74	0.08	10.00	20.00	7.278	5.23997	7.04291	0.0
5.9165	85.0920	1.74	0.08	10.00	20.00	7.278	5.23752	7.04474	0.0
5.9365	85.0920	1.74	0.08	10.00	20.00	7.278	5.23506	7.04657	0.0
5.9565	85.0920	1.74	0.08	10.00	20.00	7.278	5.23260	7.04840	0.0
5.9765	85.0920	1.74	0.08	10.00	20.00	7.278	5.23014	7.05022	2.0
5.9965	85.0920	1.74	0.08	10.00	20.00	7.278	5.22767	7.05205	0.0
6.0165	85.0920	1.74	0.08	10.00	20.00	7.278	5.22521	7.05387	0.0
6.0365	85.0920	1.74	0.08	10.00	20.00	7.278	5.22275	7.05569	4.0
6.0565	85.0920	1.74	0.08	10.00	20.00	7.278	5.22029	7.05752	0.0
6.0765	85.0920	1.74	0.08	10.00	20.00	7.278	5.21782	7.05934	0.0
[...]
8.7265	89.0320	1.74	0.08	10.00	20.00	7.278	5.32292	7.38326	4.0
8.7465	89.0320	1.74	0.08	10.00	20.00	7.278	5.32034	7.38512	2.0
8.7665	89.0320	1.74	0.08	10.00	20.00	7.278	5.31777	7.38698	2.0
8.7865	89.0320	1.74	0.08	10.00	20.00	7.278	5.31519	7.38883	2.0
8.8065	89.0320	1.74	0.08	10.00	20.00	7.278	5.31261	7.39069	2.0
8.8265	89.0320	1.74	0.08	10.00	20.00	7.278	5.31003	7.39254	0.0
8.8465	89.0320	1.74	0.08	10.00	20.00	7.278	5.30745	7.39440	4.0
8.8665	89.0320	1.74	0.08	10.00	20.00	7.278	5.30486	7.39625	0.0
8.8865	89.0320	1.74	0.08	10.00	20.00	7.278	5.30228	7.39810	0.0
8.9065	89.0320	1.74	0.08	10.00	20.00	7.278	5.29970	7.39995	4.0
8.9265	89.0320	1.74	0.08	10.00	20.00	7.278	5.29712	7.40180	0.0
8.9465	89.0320	1.74	0.08	10.00	20.00	7.278	5.29453	7.40365	2.0
8.9665	89.0320	1.74	0.08	10.00	20.00	7.278	5.29195	7.40550	0.0
8.9865	89.0320	1.74	0.08	10.00	20.00	7.278	5.28936	7.40734	0.0
9.0065	89.0320	1.74	0.08	10.00	20.00	7.278	5.28678	7.40919	4.0
9.0265	89.0320	1.74	0.08	10.00	20.00	7.278	5.28419	7.41103	0.0
9.0465	89.0320	1.74	0.08	10.00	20.00	7.278	5.28160	7.41288	0.0
9.0665	89.0320	1.74	0.08	10.00	20.00	7.278	5.27901	7.41472	2.0
9.0865	89.0320	1.74	0.08	10.00	20.00	7.278	5.27643	7.41656	2.0
9.1065	89.0320	1.74	0.08	10.00	20.00	7.278	5.27384	7.41840	0.0
9.1265	89.0320	1.74	0.08	10.00	20.00	7.278	5.27125	7.42025	2.0
9.1465	89.0320	1.74	0.08	10.00	20.00	7.278	5.26866	7.42208	2.0
9.1665	89.0320	1.74	0.08	10.00	20.00	7.278	5.26607	7.42392	0.0
9.1865	89.0320	1.74	0.08	10.00	20.00	7.278	5.26347	7.42576	0.0
9.2065	89.0320	1.74	0.08	10.00	20.00	7.278	5.26088	7.42760	0.0
9.2265	89.0320	1.74	0.08	10.00	20.00	7.278	5.25829	7.42943	4.0
9.2465	89.0320	1.74	0.08	10.00	20.00	7.278	5.25569	7.43127	0.0
9.2665	89.0320	1.74	0.08	10.00	20.00	7.278	5.25310	7.43310	0.0
9.2865	89.0320	1.74	0.08	10.00	20.00	7.278	5.25051	7.43494	4.0
9.3065	89.0320	1.74	0.08	10.00	20.00	7.278	5.24791	7.43677	0.0
9.3265	89.0320	1.74	0.08	10.00	20.00	7.278	5.24531	7.43860	0.0
9.3465	89.0320	1.74	0.08	10.00	20.00	7.278	5.24272	7.44043	2.0
9.3665	89.0320	1.74	0.08	10.00	20.00	7.278	5.24012	7.44226	4.0
9.3865	89.0320	1.74	0.08	10.00	20.00	7.278	5.23752	7.44409	0.0
9.4065	89.0320	1.74	0.08	10.00	20.00	7.278	5.23492	7.44592	2.0
9.4265	89.0320	1.74	0.08	10.00	20.00	7.278	5.23232	7.44774	6.0
9.4465	89.0320	1.74	0.08	10.00	20.00	7.278	5.22972	7.44957	0.0
9.4665	89.0320	1.74	0.08	10.00	20.00	7.278	5.22712	7.45139	4.0
9.4865	89.0320	1.74	0.08	10.00	20.00	7.278	5.22452	7.45322	2.0
9.5065	89.0320	1.74	0.08	10.00	20.00	7.278	5.22192	7.45504	2.0
9.5265	89.0320	1.74	0.08	10.00	20.00	7.278	5.21932	7.45686	2.0
9.5465	89.0320	1.74	0.08	10.00	20.00	7.278	5.21671	7.45869	2.0
9.5665	89.0320	1.74	0.08	10.00	20.00	7.278	5.21411	7.46051	4.0
9.5865	89.0320	1.74	0.08	10.00	20.00	7.278	5.21150	7.46233	4.0
9.6065	89.0320	1.74	0.08	10.00	20.00	7.278	5.20890	7.46414	4.0
9.6265	89.0320	1.74	0.08	10.00	20.00	7.278	5.20629	7.46596	2.0
9.6465	89.0320	1.74	0.08	10.00	20.00	7.278	5.20369	7.46778	0.0
9.6665	89.0320	1.74	0.08	10.00	20.00	7.278	5.20108	7.46960	0.0
9.6865	89.0320	1.74	0.08	10.00	20.00	7.278	5.19847	7.47141	0.0
9.7065	89.0320	1.74	0.08	10.00	20.00	7.278	5.19586	7.47322	4.0
9.7265	89.0320	1.74	0.08	10.00	20.00	7.278	5.19326	7.47504	0.0
9.7465	89.0320	1.74	0.08	10.00	20.00	7.278	5.19065	7.47685	2.0
9.7665	89.0320	1.74	0.08	10.00	20.00	7.278	5.18804	7.47866	4.0
9.7865	89.0320	1.74	0.08	10.00	20.00	7.278	5.18542	7.48047	0.0
9.8065	89.0320	1.74	0.08	10.00	20.00	7.278	5.18281	7.48228	0.0
9.8265	89.0320	1.74	0.08	10.00	20.00	7.278	5.18020	7.48409	0.0
9.8465	89.0320	1.74	0.08	10.00	20.00	7.278	5.17759	7.48590	0.0
9.8665	89.0320	1.74	0.08	10.00	20.00	7.278	5.17497	7.48770	0.0