Folder: Thesis_XRD/Data/113xx/Omega2Theta (part 4)

File: 2.0deg-2.0deg-rsm-3h10m_11371-annealed_224_w_000-100.dat
# filename: 2.0deg-2.0deg-rsm-3h10m_11371-annealed_224.dat
# reflection: (004)
# type: Projection of 100 omega2theta scans
# x-axis: omega2theta
#
# Omega	2Theta	Phi  	Chi   	X    	Y    	Z    	q_para	q_perp	Intensity
# [deg]	[deg] 	[deg]	[deg] 	[mm] 	[mm] 	[mm] 	[nm-1]	[nm-1]	[counts/s]
7.4777	85.0532	-0.92	0.32	0.00	17.53	7.303	5.03909	7.18350	1.4
7.4977	85.0932	-0.92	0.32	0.00	17.53	7.303	5.04100	7.18624	1.1
7.5177	85.1332	-0.92	0.32	0.00	17.53	7.303	5.04292	7.18897	1.3
7.5377	85.1732	-0.92	0.32	0.00	17.53	7.303	5.04484	7.19170	1.5
7.5577	85.2132	-0.92	0.32	0.00	17.53	7.303	5.04675	7.19443	1.4
7.5777	85.2532	-0.92	0.32	0.00	17.53	7.303	5.04867	7.19716	1.7
7.5977	85.2932	-0.92	0.32	0.00	17.53	7.303	5.05058	7.19989	1.6
7.6177	85.3332	-0.92	0.32	0.00	17.53	7.303	5.05250	7.20262	1.3
7.6377	85.3732	-0.92	0.32	0.00	17.53	7.303	5.05441	7.20535	1.1
7.6577	85.4132	-0.92	0.32	0.00	17.53	7.303	5.05632	7.20807	1.5
7.6777	85.4532	-0.92	0.32	0.00	17.53	7.303	5.05823	7.21080	1.6
7.6977	85.4932	-0.92	0.32	0.00	17.53	7.303	5.06014	7.21352	1.3
7.7177	85.5332	-0.92	0.32	0.00	17.53	7.303	5.06206	7.21625	1.8
7.7377	85.5732	-0.92	0.32	0.00	17.53	7.303	5.06397	7.21897	1.6
7.7577	85.6132	-0.92	0.32	0.00	17.53	7.303	5.06587	7.22169	1.5
7.7777	85.6532	-0.92	0.32	0.00	17.53	7.303	5.06778	7.22441	1.6
7.7977	85.6932	-0.92	0.32	0.00	17.53	7.303	5.06969	7.22714	1.6
7.8177	85.7332	-0.92	0.32	0.00	17.53	7.303	5.07160	7.22985	2.0
7.8377	85.7732	-0.92	0.32	0.00	17.53	7.303	5.07351	7.23257	2.0
7.8577	85.8132	-0.92	0.32	0.00	17.53	7.303	5.07541	7.23529	2.0
7.8777	85.8532	-0.92	0.32	0.00	17.53	7.303	5.07732	7.23801	2.1
7.8977	85.8932	-0.92	0.32	0.00	17.53	7.303	5.07922	7.24072	2.1
7.9177	85.9332	-0.92	0.32	0.00	17.53	7.303	5.08113	7.24344	1.9
7.9377	85.9732	-0.92	0.32	0.00	17.53	7.303	5.08303	7.24615	2.6
7.9577	86.0132	-0.92	0.32	0.00	17.53	7.303	5.08494	7.24887	3.0
7.9777	86.0532	-0.92	0.32	0.00	17.53	7.303	5.08684	7.25158	3.3
7.9977	86.0932	-0.92	0.32	0.00	17.53	7.303	5.08874	7.25429	3.5
8.0177	86.1332	-0.92	0.32	0.00	17.53	7.303	5.09064	7.25700	3.8
8.0377	86.1732	-0.92	0.32	0.00	17.53	7.303	5.09254	7.25971	5.4
8.0577	86.2132	-0.92	0.32	0.00	17.53	7.303	5.09444	7.26242	7.9
8.0777	86.2532	-0.92	0.32	0.00	17.53	7.303	5.09634	7.26513	20.4
8.0977	86.2932	-0.92	0.32	0.00	17.53	7.303	5.09824	7.26783	118.1
8.1177	86.3332	-0.92	0.32	0.00	17.53	7.303	5.10014	7.27054	1190.4
8.1377	86.3732	-0.92	0.32	0.00	17.53	7.303	5.10204	7.27325	2860.9
8.1577	86.4132	-0.92	0.32	0.00	17.53	7.303	5.10393	7.27595	449.3
8.1777	86.4532	-0.92	0.32	0.00	17.53	7.303	5.10583	7.27865	215.8
8.1977	86.4932	-0.92	0.32	0.00	17.53	7.303	5.10773	7.28136	200.1
8.2177	86.5332	-0.92	0.32	0.00	17.53	7.303	5.10962	7.28406	194.8
8.2377	86.5732	-0.92	0.32	0.00	17.53	7.303	5.11152	7.28676	192.5
8.2577	86.6132	-0.92	0.32	0.00	17.53	7.303	5.11341	7.28946	192.5
8.2777	86.6532	-0.92	0.32	0.00	17.53	7.303	5.11530	7.29216	196.6
8.2977	86.6932	-0.92	0.32	0.00	17.53	7.303	5.11720	7.29486	194.5
8.3177	86.7332	-0.92	0.32	0.00	17.53	7.303	5.11909	7.29755	194.6
8.3377	86.7732	-0.92	0.32	0.00	17.53	7.303	5.12098	7.30025	187.2
8.3577	86.8132	-0.92	0.32	0.00	17.53	7.303	5.12287	7.30294	175.3
8.3777	86.8532	-0.92	0.32	0.00	17.53	7.303	5.12476	7.30564	172.5
8.3977	86.8932	-0.92	0.32	0.00	17.53	7.303	5.12665	7.30833	167.1
8.4177	86.9332	-0.92	0.32	0.00	17.53	7.303	5.12854	7.31103	154.3
8.4377	86.9732	-0.92	0.32	0.00	17.53	7.303	5.13043	7.31372	150.7
8.4577	87.0132	-0.92	0.32	0.00	17.53	7.303	5.13232	7.31641	149.4
8.4777	87.0532	-0.92	0.32	0.00	17.53	7.303	5.13420	7.31910	145.2
8.4977	87.0932	-0.92	0.32	0.00	17.53	7.303	5.13609	7.32179	144.2
8.5177	87.1332	-0.92	0.32	0.00	17.53	7.303	5.13798	7.32448	140.1
8.5377	87.1732	-0.92	0.32	0.00	17.53	7.303	5.13986	7.32716	131.0
8.5577	87.2132	-0.92	0.32	0.00	17.53	7.303	5.14175	7.32985	127.8
8.5777	87.2532	-0.92	0.32	0.00	17.53	7.303	5.14363	7.33254	123.9
8.5977	87.2932	-0.92	0.32	0.00	17.53	7.303	5.14551	7.33522	121.3
8.6177	87.3332	-0.92	0.32	0.00	17.53	7.303	5.14740	7.33791	118.1
8.6377	87.3732	-0.92	0.32	0.00	17.53	7.303	5.14928	7.34059	115.3
8.6577	87.4132	-0.92	0.32	0.00	17.53	7.303	5.15116	7.34327	110.4
8.6777	87.4532	-0.92	0.32	0.00	17.53	7.303	5.15304	7.34595	106.6
8.6977	87.4932	-0.92	0.32	0.00	17.53	7.303	5.15492	7.34863	101.8
8.7177	87.5332	-0.92	0.32	0.00	17.53	7.303	5.15680	7.35131	100.8
8.7377	87.5732	-0.92	0.32	0.00	17.53	7.303	5.15868	7.35399	100.1
8.7577	87.6132	-0.92	0.32	0.00	17.53	7.303	5.16056	7.35667	99.5
8.7777	87.6532	-0.92	0.32	0.00	17.53	7.303	5.16244	7.35935	97.0
8.7977	87.6932	-0.92	0.32	0.00	17.53	7.303	5.16431	7.36202	89.7
8.8177	87.7332	-0.92	0.32	0.00	17.53	7.303	5.16619	7.36470	89.7
8.8377	87.7732	-0.92	0.32	0.00	17.53	7.303	5.16806	7.36737	91.3
8.8577	87.8132	-0.92	0.32	0.00	17.53	7.303	5.16994	7.37004	84.2
8.8777	87.8532	-0.92	0.32	0.00	17.53	7.303	5.17181	7.37272	83.3
8.8977	87.8932	-0.92	0.32	0.00	17.53	7.303	5.17369	7.37539	77.9
8.9177	87.9332	-0.92	0.32	0.00	17.53	7.303	5.17556	7.37806	74.9
8.9377	87.9732	-0.92	0.32	0.00	17.53	7.303	5.17743	7.38073	92.4
8.9577	88.0132	-0.92	0.32	0.00	17.53	7.303	5.17931	7.38340	838.2
8.9777	88.0532	-0.92	0.32	0.00	17.53	7.303	5.18118	7.38606	898.3
8.9977	88.0932	-0.92	0.32	0.00	17.53	7.303	5.18305	7.38873	61.4
9.0177	88.1332	-0.92	0.32	0.00	17.53	7.303	5.18492	7.39140	10.5
9.0377	88.1732	-0.92	0.32	0.00	17.53	7.303	5.18679	7.39406	8.2
9.0577	88.2132	-0.92	0.32	0.00	17.53	7.303	5.18866	7.39673	6.4
9.0777	88.2532	-0.92	0.32	0.00	17.53	7.303	5.19052	7.39939	6.0
9.0977	88.2932	-0.92	0.32	0.00	17.53	7.303	5.19239	7.40205	5.6
9.1177	88.3332	-0.92	0.32	0.00	17.53	7.303	5.19426	7.40471	5.2
9.1377	88.3732	-0.92	0.32	0.00	17.53	7.303	5.19613	7.40737	4.7
9.1577	88.4132	-0.92	0.32	0.00	17.53	7.303	5.19799	7.41003	3.5
9.1777	88.4532	-0.92	0.32	0.00	17.53	7.303	5.19986	7.41269	3.0
9.1977	88.4932	-0.92	0.32	0.00	17.53	7.303	5.20172	7.41535	2.4
9.2177	88.5332	-0.92	0.32	0.00	17.53	7.303	5.20358	7.41801	2.1
9.2377	88.5732	-0.92	0.32	0.00	17.53	7.303	5.20545	7.42066	1.9
9.2577	88.6132	-0.92	0.32	0.00	17.53	7.303	5.20731	7.42332	1.8
9.2777	88.6532	-0.92	0.32	0.00	17.53	7.303	5.20917	7.42597	2.1
9.2977	88.6932	-0.92	0.32	0.00	17.53	7.303	5.21103	7.42863	1.6
9.3177	88.7332	-0.92	0.32	0.00	17.53	7.303	5.21289	7.43128	1.6
9.3377	88.7732	-0.92	0.32	0.00	17.53	7.303	5.21475	7.43393	1.5
9.3577	88.8132	-0.92	0.32	0.00	17.53	7.303	5.21661	7.43658	1.5
9.3777	88.8532	-0.92	0.32	0.00	17.53	7.303	5.21847	7.43923	1.4
9.3977	88.8932	-0.92	0.32	0.00	17.53	7.303	5.22033	7.44188	1.3
9.4177	88.9332	-0.92	0.32	0.00	17.53	7.303	5.22219	7.44453	1.5
9.4377	88.9732	-0.92	0.32	0.00	17.53	7.303	5.22405	7.44717	1.5
9.4577	89.0132	-0.92	0.32	0.00	17.53	7.303	5.22590	7.44982	1.4