Folder: Thesis_XRD/Data/113xx/Omega (part 2)

File: 1.5deg-2.0deg-rsm-2h30mins_11355-annealed_004_w-scans.dat
# filename: 1.5deg-2.0deg-rsm-2h30mins_11355-annealed_004.dat
# reflection: (004)
# type: rotated into a series of omega scans
# x-axis: Omega_2Theta
#
# Omega	2Theta	Phi  	Chi   	X    	Y    	Z    	q_para	q_perp	Intensity
# [deg]	[deg] 	[deg]	[deg] 	[mm] 	[mm] 	[mm] 	[nm-1]	[nm-1]	[counts/s]
32.6813	66.6668	-0.70	-0.27	0.00	15.50	7.376	0.08119	7.13343	0.0
32.7013	66.6668	-0.70	-0.27	0.00	15.50	7.376	0.07870	7.13346	0.0
32.7213	66.6668	-0.70	-0.27	0.00	15.50	7.376	0.07621	7.13348	0.0
32.7413	66.6668	-0.70	-0.27	0.00	15.50	7.376	0.07372	7.13351	0.0
32.7613	66.6668	-0.70	-0.27	0.00	15.50	7.376	0.07123	7.13353	0.0
32.7813	66.6668	-0.70	-0.27	0.00	15.50	7.376	0.06874	7.13356	0.0
32.8013	66.6668	-0.70	-0.27	0.00	15.50	7.376	0.06625	7.13358	0.0
32.8213	66.6668	-0.70	-0.27	0.00	15.50	7.376	0.06376	7.13360	0.0
32.8413	66.6668	-0.70	-0.27	0.00	15.50	7.376	0.06127	7.13363	0.0
32.8613	66.6668	-0.70	-0.27	0.00	15.50	7.376	0.05878	7.13365	2.0
32.8813	66.6668	-0.70	-0.27	0.00	15.50	7.376	0.05629	7.13367	0.0
32.9013	66.6668	-0.70	-0.27	0.00	15.50	7.376	0.05380	7.13369	0.0
32.9213	66.6668	-0.70	-0.27	0.00	15.50	7.376	0.05131	7.13370	0.0
32.9413	66.6668	-0.70	-0.27	0.00	15.50	7.376	0.04882	7.13372	0.0
32.9613	66.6668	-0.70	-0.27	0.00	15.50	7.376	0.04633	7.13374	4.0
32.9813	66.6668	-0.70	-0.27	0.00	15.50	7.376	0.04384	7.13375	0.0
33.0013	66.6668	-0.70	-0.27	0.00	15.50	7.376	0.04135	7.13377	2.0
33.0213	66.6668	-0.70	-0.27	0.00	15.50	7.376	0.03886	7.13378	0.0
33.0413	66.6668	-0.70	-0.27	0.00	15.50	7.376	0.03637	7.13380	2.0
33.0613	66.6668	-0.70	-0.27	0.00	15.50	7.376	0.03388	7.13381	0.0
33.0813	66.6668	-0.70	-0.27	0.00	15.50	7.376	0.03139	7.13382	4.0
33.1013	66.6668	-0.70	-0.27	0.00	15.50	7.376	0.02890	7.13383	0.0
33.1213	66.6668	-0.70	-0.27	0.00	15.50	7.376	0.02641	7.13384	0.0
33.1413	66.6668	-0.70	-0.27	0.00	15.50	7.376	0.02392	7.13385	2.0
33.1613	66.6668	-0.70	-0.27	0.00	15.50	7.376	0.02143	7.13386	0.0
33.1813	66.6668	-0.70	-0.27	0.00	15.50	7.376	0.01894	7.13386	6.0
33.2013	66.6668	-0.70	-0.27	0.00	15.50	7.376	0.01645	7.13387	0.0
33.2213	66.6668	-0.70	-0.27	0.00	15.50	7.376	0.01396	7.13388	0.0
33.2413	66.6668	-0.70	-0.27	0.00	15.50	7.376	0.01147	7.13388	0.0
33.2613	66.6668	-0.70	-0.27	0.00	15.50	7.376	0.00898	7.13388	0.0
33.2813	66.6668	-0.70	-0.27	0.00	15.50	7.376	0.00649	7.13389	0.0
33.3013	66.6668	-0.70	-0.27	0.00	15.50	7.376	0.00400	7.13389	0.0
33.3213	66.6668	-0.70	-0.27	0.00	15.50	7.376	0.00151	7.13389	0.0
33.3413	66.6668	-0.70	-0.27	0.00	15.50	7.376	-0.00098	7.13389	2.0
33.3613	66.6668	-0.70	-0.27	0.00	15.50	7.376	-0.00347	7.13389	2.0
33.3813	66.6668	-0.70	-0.27	0.00	15.50	7.376	-0.00596	7.13389	0.0
33.4013	66.6668	-0.70	-0.27	0.00	15.50	7.376	-0.00845	7.13388	2.0
33.4213	66.6668	-0.70	-0.27	0.00	15.50	7.376	-0.01094	7.13388	0.0
33.4413	66.6668	-0.70	-0.27	0.00	15.50	7.376	-0.01343	7.13388	0.0
33.4613	66.6668	-0.70	-0.27	0.00	15.50	7.376	-0.01592	7.13387	2.0
33.4813	66.6668	-0.70	-0.27	0.00	15.50	7.376	-0.01841	7.13387	2.0
33.5013	66.6668	-0.70	-0.27	0.00	15.50	7.376	-0.02091	7.13386	0.0
33.5213	66.6668	-0.70	-0.27	0.00	15.50	7.376	-0.02340	7.13385	0.0
33.5413	66.6668	-0.70	-0.27	0.00	15.50	7.376	-0.02589	7.13384	0.0
33.5613	66.6668	-0.70	-0.27	0.00	15.50	7.376	-0.02838	7.13383	0.0
33.5813	66.6668	-0.70	-0.27	0.00	15.50	7.376	-0.03087	7.13382	0.0
33.6013	66.6668	-0.70	-0.27	0.00	15.50	7.376	-0.03336	7.13381	4.0
33.6213	66.6668	-0.70	-0.27	0.00	15.50	7.376	-0.03585	7.13380	4.0
33.6413	66.6668	-0.70	-0.27	0.00	15.50	7.376	-0.03834	7.13379	0.0
33.6613	66.6668	-0.70	-0.27	0.00	15.50	7.376	-0.04083	7.13377	2.0
33.6813	66.6668	-0.70	-0.27	0.00	15.50	7.376	-0.04332	7.13376	4.0
33.7013	66.6668	-0.70	-0.27	0.00	15.50	7.376	-0.04581	7.13374	0.0
33.7213	66.6668	-0.70	-0.27	0.00	15.50	7.376	-0.04830	7.13373	0.0
33.7413	66.6668	-0.70	-0.27	0.00	15.50	7.376	-0.05079	7.13371	0.0
33.7613	66.6668	-0.70	-0.27	0.00	15.50	7.376	-0.05328	7.13369	2.0
33.7813	66.6668	-0.70	-0.27	0.00	15.50	7.376	-0.05577	7.13367	0.0
33.8013	66.6668	-0.70	-0.27	0.00	15.50	7.376	-0.05826	7.13365	0.0
33.8213	66.6668	-0.70	-0.27	0.00	15.50	7.376	-0.06075	7.13363	0.0
33.8413	66.6668	-0.70	-0.27	0.00	15.50	7.376	-0.06324	7.13361	0.0
33.8613	66.6668	-0.70	-0.27	0.00	15.50	7.376	-0.06573	7.13359	0.0
33.8813	66.6668	-0.70	-0.27	0.00	15.50	7.376	-0.06822	7.13356	2.0
33.9013	66.6668	-0.70	-0.27	0.00	15.50	7.376	-0.07071	7.13354	0.0
33.9213	66.6668	-0.70	-0.27	0.00	15.50	7.376	-0.07320	7.13351	0.0
33.9413	66.6668	-0.70	-0.27	0.00	15.50	7.376	-0.07569	7.13349	0.0
33.9613	66.6668	-0.70	-0.27	0.00	15.50	7.376	-0.07818	7.13346	4.0
33.9813	66.6668	-0.70	-0.27	0.00	15.50	7.376	-0.08067	7.13343	0.0
34.0013	66.6668	-0.70	-0.27	0.00	15.50	7.376	-0.08316	7.13340	0.0
34.0213	66.6668	-0.70	-0.27	0.00	15.50	7.376	-0.08565	7.13338	0.0
34.0413	66.6668	-0.70	-0.27	0.00	15.50	7.376	-0.08814	7.13334	4.0
34.0613	66.6668	-0.70	-0.27	0.00	15.50	7.376	-0.09063	7.13331	0.0
34.0813	66.6668	-0.70	-0.27	0.00	15.50	7.376	-0.09312	7.13328	2.0
34.1013	66.6668	-0.70	-0.27	0.00	15.50	7.376	-0.09561	7.13325	0.0
34.1213	66.6668	-0.70	-0.27	0.00	15.50	7.376	-0.09810	7.13321	0.0
34.1413	66.6668	-0.70	-0.27	0.00	15.50	7.376	-0.10059	7.13318	2.0
34.1613	66.6668	-0.70	-0.27	0.00	15.50	7.376	-0.10308	7.13314	0.0
34.1813	66.6668	-0.70	-0.27	0.00	15.50	7.376	-0.10557	7.13311	2.0
34.2013	66.6668	-0.70	-0.27	0.00	15.50	7.376	-0.10806	7.13307	0.0
34.2213	66.6668	-0.70	-0.27	0.00	15.50	7.376	-0.11055	7.13303	0.0
34.2413	66.6668	-0.70	-0.27	0.00	15.50	7.376	-0.11304	7.13299	0.0
34.2613	66.6668	-0.70	-0.27	0.00	15.50	7.376	-0.11553	7.13295	0.0
34.2813	66.6668	-0.70	-0.27	0.00	15.50	7.376	-0.11802	7.13291	2.0
34.3013	66.6668	-0.70	-0.27	0.00	15.50	7.376	-0.12051	7.13287	0.0
34.3213	66.6668	-0.70	-0.27	0.00	15.50	7.376	-0.12300	7.13283	0.0
34.3413	66.6668	-0.70	-0.27	0.00	15.50	7.376	-0.12549	7.13279	2.0
34.3613	66.6668	-0.70	-0.27	0.00	15.50	7.376	-0.12798	7.13274	0.0
34.3813	66.6668	-0.70	-0.27	0.00	15.50	7.376	-0.13047	7.13270	0.0
34.4013	66.6668	-0.70	-0.27	0.00	15.50	7.376	-0.13296	7.13265	0.0
34.4213	66.6668	-0.70	-0.27	0.00	15.50	7.376	-0.13545	7.13260	0.0
34.4413	66.6668	-0.70	-0.27	0.00	15.50	7.376	-0.13794	7.13256	2.0
34.4613	66.6668	-0.70	-0.27	0.00	15.50	7.376	-0.14043	7.13251	2.0
34.4813	66.6668	-0.70	-0.27	0.00	15.50	7.376	-0.14292	7.13246	0.0
34.5013	66.6668	-0.70	-0.27	0.00	15.50	7.376	-0.14540	7.13241	0.0
34.5213	66.6668	-0.70	-0.27	0.00	15.50	7.376	-0.14789	7.13236	0.0
34.5413	66.6668	-0.70	-0.27	0.00	15.50	7.376	-0.15038	7.13230	0.0
34.5613	66.6668	-0.70	-0.27	0.00	15.50	7.376	-0.15287	7.13225	2.0
34.5813	66.6668	-0.70	-0.27	0.00	15.50	7.376	-0.15536	7.13220	0.0
34.6013	66.6668	-0.70	-0.27	0.00	15.50	7.376	-0.15785	7.13214	2.0
34.6213	66.6668	-0.70	-0.27	0.00	15.50	7.376	-0.16034	7.13209	0.0
34.6413	66.6668	-0.70	-0.27	0.00	15.50	7.376	-0.16283	7.13203	0.0
34.6613	66.6668	-0.70	-0.27	0.00	15.50	7.376	-0.16532	7.13197	0.0
34.6813	66.6668	-0.70	-0.27	0.00	15.50	7.376	-0.16781	7.13192	0.0

32.6913	66.6868	-0.70	-0.27	0.00	15.50	7.376	0.08121	7.13532	0.0
32.7113	66.6868	-0.70	-0.27	0.00	15.50	7.376	0.07872	7.13535	0.0
32.7313	66.6868	-0.70	-0.27	0.00	15.50	7.376	0.07623	7.13538	2.0
32.7513	66.6868	-0.70	-0.27	0.00	15.50	7.376	0.07374	7.13540	2.0
32.7713	66.6868	-0.70	-0.27	0.00	15.50	7.376	0.07125	7.13543	2.0
32.7913	66.6868	-0.70	-0.27	0.00	15.50	7.376	0.06876	7.13545	2.0
[...]
35.0813	69.6268	-0.70	-0.27	0.00	15.50	7.376	-0.03465	7.41157	8.0
35.1013	69.6268	-0.70	-0.27	0.00	15.50	7.376	-0.03724	7.41156	2.0
35.1213	69.6268	-0.70	-0.27	0.00	15.50	7.376	-0.03983	7.41155	0.0
35.1413	69.6268	-0.70	-0.27	0.00	15.50	7.376	-0.04242	7.41153	2.0
35.1613	69.6268	-0.70	-0.27	0.00	15.50	7.376	-0.04500	7.41152	2.0
35.1813	69.6268	-0.70	-0.27	0.00	15.50	7.376	-0.04759	7.41150	0.0
35.2013	69.6268	-0.70	-0.27	0.00	15.50	7.376	-0.05018	7.41148	0.0
35.2213	69.6268	-0.70	-0.27	0.00	15.50	7.376	-0.05276	7.41147	0.0
35.2413	69.6268	-0.70	-0.27	0.00	15.50	7.376	-0.05535	7.41145	2.0
35.2613	69.6268	-0.70	-0.27	0.00	15.50	7.376	-0.05794	7.41143	0.0
35.2813	69.6268	-0.70	-0.27	0.00	15.50	7.376	-0.06053	7.41141	2.0
35.3013	69.6268	-0.70	-0.27	0.00	15.50	7.376	-0.06311	7.41138	2.0
35.3213	69.6268	-0.70	-0.27	0.00	15.50	7.376	-0.06570	7.41136	0.0
35.3413	69.6268	-0.70	-0.27	0.00	15.50	7.376	-0.06829	7.41134	2.0
35.3613	69.6268	-0.70	-0.27	0.00	15.50	7.376	-0.07087	7.41131	0.0
35.3813	69.6268	-0.70	-0.27	0.00	15.50	7.376	-0.07346	7.41129	4.0
35.4013	69.6268	-0.70	-0.27	0.00	15.50	7.376	-0.07605	7.41126	0.0
35.4213	69.6268	-0.70	-0.27	0.00	15.50	7.376	-0.07864	7.41124	2.0
35.4413	69.6268	-0.70	-0.27	0.00	15.50	7.376	-0.08122	7.41121	0.0
35.4613	69.6268	-0.70	-0.27	0.00	15.50	7.376	-0.08381	7.41118	0.0
35.4813	69.6268	-0.70	-0.27	0.00	15.50	7.376	-0.08640	7.41115	0.0
35.5013	69.6268	-0.70	-0.27	0.00	15.50	7.376	-0.08898	7.41112	2.0
35.5213	69.6268	-0.70	-0.27	0.00	15.50	7.376	-0.09157	7.41109	2.0
35.5413	69.6268	-0.70	-0.27	0.00	15.50	7.376	-0.09416	7.41106	2.0
35.5613	69.6268	-0.70	-0.27	0.00	15.50	7.376	-0.09674	7.41102	0.0
35.5813	69.6268	-0.70	-0.27	0.00	15.50	7.376	-0.09933	7.41099	0.0
35.6013	69.6268	-0.70	-0.27	0.00	15.50	7.376	-0.10192	7.41095	4.0
35.6213	69.6268	-0.70	-0.27	0.00	15.50	7.376	-0.10450	7.41092	2.0
35.6413	69.6268	-0.70	-0.27	0.00	15.50	7.376	-0.10709	7.41088	4.0
35.6613	69.6268	-0.70	-0.27	0.00	15.50	7.376	-0.10968	7.41084	0.0
35.6813	69.6268	-0.70	-0.27	0.00	15.50	7.376	-0.11227	7.41080	6.0
35.7013	69.6268	-0.70	-0.27	0.00	15.50	7.376	-0.11485	7.41076	2.0
35.7213	69.6268	-0.70	-0.27	0.00	15.50	7.376	-0.11744	7.41072	0.0
35.7413	69.6268	-0.70	-0.27	0.00	15.50	7.376	-0.12003	7.41068	0.0
35.7613	69.6268	-0.70	-0.27	0.00	15.50	7.376	-0.12261	7.41064	0.0
35.7813	69.6268	-0.70	-0.27	0.00	15.50	7.376	-0.12520	7.41060	0.0
35.8013	69.6268	-0.70	-0.27	0.00	15.50	7.376	-0.12779	7.41055	0.0
35.8213	69.6268	-0.70	-0.27	0.00	15.50	7.376	-0.13037	7.41051	0.0
35.8413	69.6268	-0.70	-0.27	0.00	15.50	7.376	-0.13296	7.41046	0.0
35.8613	69.6268	-0.70	-0.27	0.00	15.50	7.376	-0.13555	7.41041	2.0
35.8813	69.6268	-0.70	-0.27	0.00	15.50	7.376	-0.13813	7.41037	0.0
35.9013	69.6268	-0.70	-0.27	0.00	15.50	7.376	-0.14072	7.41032	0.0
35.9213	69.6268	-0.70	-0.27	0.00	15.50	7.376	-0.14331	7.41027	0.0
35.9413	69.6268	-0.70	-0.27	0.00	15.50	7.376	-0.14589	7.41022	0.0
35.9613	69.6268	-0.70	-0.27	0.00	15.50	7.376	-0.14848	7.41017	0.0
35.9813	69.6268	-0.70	-0.27	0.00	15.50	7.376	-0.15107	7.41011	0.0
36.0013	69.6268	-0.70	-0.27	0.00	15.50	7.376	-0.15365	7.41006	0.0
36.0213	69.6268	-0.70	-0.27	0.00	15.50	7.376	-0.15624	7.41001	0.0
36.0413	69.6268	-0.70	-0.27	0.00	15.50	7.376	-0.15883	7.40995	2.0
36.0613	69.6268	-0.70	-0.27	0.00	15.50	7.376	-0.16141	7.40990	0.0
36.0813	69.6268	-0.70	-0.27	0.00	15.50	7.376	-0.16400	7.40984	2.0
36.1013	69.6268	-0.70	-0.27	0.00	15.50	7.376	-0.16659	7.40978	2.0
36.1213	69.6268	-0.70	-0.27	0.00	15.50	7.376	-0.16917	7.40972	6.0
36.1413	69.6268	-0.70	-0.27	0.00	15.50	7.376	-0.17176	7.40966	0.0
36.1613	69.6268	-0.70	-0.27	0.00	15.50	7.376	-0.17435	7.40960	0.0

File: 1.5deg-2.0deg-rsm-2h30mins_11371-as-grown_004_w-scans.dat
# filename: 1.5deg-2.0deg-rsm-2h30mins_11371-as-grown_004.dat
# reflection: (004)
# type: rotated into a series of omega scans
# x-axis: Omega_2Theta
#
# Omega	2Theta	Phi  	Chi   	X    	Y    	Z    	q_para	q_perp	Intensity
# [deg]	[deg] 	[deg]	[deg] 	[mm] 	[mm] 	[mm] 	[nm-1]	[nm-1]	[counts/s]
32.7127	67.1740	0.79	0.03	5.00	5.00	7.412	0.10959	7.18099	0.0
32.7327	67.1740	0.79	0.03	5.00	5.00	7.412	0.10708	7.18103	0.0
32.7527	67.1740	0.79	0.03	5.00	5.00	7.412	0.10457	7.18107	4.0
32.7727	67.1740	0.79	0.03	5.00	5.00	7.412	0.10207	7.18110	2.0
32.7927	67.1740	0.79	0.03	5.00	5.00	7.412	0.09956	7.18114	2.0
32.8127	67.1740	0.79	0.03	5.00	5.00	7.412	0.09705	7.18117	0.0
32.8327	67.1740	0.79	0.03	5.00	5.00	7.412	0.09455	7.18121	2.0
32.8527	67.1740	0.79	0.03	5.00	5.00	7.412	0.09204	7.18124	0.0
32.8727	67.1740	0.79	0.03	5.00	5.00	7.412	0.08953	7.18127	0.0
32.8927	67.1740	0.79	0.03	5.00	5.00	7.412	0.08703	7.18130	0.0
32.9127	67.1740	0.79	0.03	5.00	5.00	7.412	0.08452	7.18133	0.0
32.9327	67.1740	0.79	0.03	5.00	5.00	7.412	0.08201	7.18136	0.0
32.9527	67.1740	0.79	0.03	5.00	5.00	7.412	0.07951	7.18139	2.0
32.9727	67.1740	0.79	0.03	5.00	5.00	7.412	0.07700	7.18142	0.0
32.9927	67.1740	0.79	0.03	5.00	5.00	7.412	0.07449	7.18144	2.0
33.0127	67.1740	0.79	0.03	5.00	5.00	7.412	0.07199	7.18147	2.0
33.0327	67.1740	0.79	0.03	5.00	5.00	7.412	0.06948	7.18149	2.0
33.0527	67.1740	0.79	0.03	5.00	5.00	7.412	0.06697	7.18152	2.0
33.0727	67.1740	0.79	0.03	5.00	5.00	7.412	0.06446	7.18154	0.0
33.0927	67.1740	0.79	0.03	5.00	5.00	7.412	0.06196	7.18156	0.0
33.1127	67.1740	0.79	0.03	5.00	5.00	7.412	0.05945	7.18158	2.0
33.1327	67.1740	0.79	0.03	5.00	5.00	7.412	0.05694	7.18160	0.0
33.1527	67.1740	0.79	0.03	5.00	5.00	7.412	0.05444	7.18162	4.0
33.1727	67.1740	0.79	0.03	5.00	5.00	7.412	0.05193	7.18164	0.0
33.1927	67.1740	0.79	0.03	5.00	5.00	7.412	0.04942	7.18166	0.0
33.2127	67.1740	0.79	0.03	5.00	5.00	7.412	0.04692	7.18167	0.0
33.2327	67.1740	0.79	0.03	5.00	5.00	7.412	0.04441	7.18169	2.0
33.2527	67.1740	0.79	0.03	5.00	5.00	7.412	0.04190	7.18171	0.0
33.2727	67.1740	0.79	0.03	5.00	5.00	7.412	0.03940	7.18172	0.0
33.2927	67.1740	0.79	0.03	5.00	5.00	7.412	0.03689	7.18173	0.0
33.3127	67.1740	0.79	0.03	5.00	5.00	7.412	0.03438	7.18175	2.0
33.3327	67.1740	0.79	0.03	5.00	5.00	7.412	0.03188	7.18176	4.0
33.3527	67.1740	0.79	0.03	5.00	5.00	7.412	0.02937	7.18177	2.0
33.3727	67.1740	0.79	0.03	5.00	5.00	7.412	0.02686	7.18178	0.0
33.3927	67.1740	0.79	0.03	5.00	5.00	7.412	0.02435	7.18179	0.0
33.4127	67.1740	0.79	0.03	5.00	5.00	7.412	0.02185	7.18179	2.0
33.4327	67.1740	0.79	0.03	5.00	5.00	7.412	0.01934	7.18180	0.0
33.4527	67.1740	0.79	0.03	5.00	5.00	7.412	0.01683	7.18181	2.0
33.4727	67.1740	0.79	0.03	5.00	5.00	7.412	0.01433	7.18181	0.0
33.4927	67.1740	0.79	0.03	5.00	5.00	7.412	0.01182	7.18182	0.0
33.5127	67.1740	0.79	0.03	5.00	5.00	7.412	0.00931	7.18182	2.0
33.5327	67.1740	0.79	0.03	5.00	5.00	7.412	0.00681	7.18182	4.0
33.5527	67.1740	0.79	0.03	5.00	5.00	7.412	0.00430	7.18183	0.0
33.5727	67.1740	0.79	0.03	5.00	5.00	7.412	0.00179	7.18183	4.0
33.5927	67.1740	0.79	0.03	5.00	5.00	7.412	-0.00071	7.18183	2.0
33.6127	67.1740	0.79	0.03	5.00	5.00	7.412	-0.00322	7.18183	2.0
33.6327	67.1740	0.79	0.03	5.00	5.00	7.412	-0.00573	7.18183	0.0
33.6527	67.1740	0.79	0.03	5.00	5.00	7.412	-0.00824	7.18182	0.0
33.6727	67.1740	0.79	0.03	5.00	5.00	7.412	-0.01074	7.18182	2.0
33.6927	67.1740	0.79	0.03	5.00	5.00	7.412	-0.01325	7.18182	0.0
33.7127	67.1740	0.79	0.03	5.00	5.00	7.412	-0.01576	7.18181	0.0
33.7327	67.1740	0.79	0.03	5.00	5.00	7.412	-0.01826	7.18180	0.0
33.7527	67.1740	0.79	0.03	5.00	5.00	7.412	-0.02077	7.18180	4.0
33.7727	67.1740	0.79	0.03	5.00	5.00	7.412	-0.02328	7.18179	2.0
33.7927	67.1740	0.79	0.03	5.00	5.00	7.412	-0.02578	7.18178	2.0
33.8127	67.1740	0.79	0.03	5.00	5.00	7.412	-0.02829	7.18177	4.0
33.8327	67.1740	0.79	0.03	5.00	5.00	7.412	-0.03080	7.18176	0.0
33.8527	67.1740	0.79	0.03	5.00	5.00	7.412	-0.03330	7.18175	2.0
33.8727	67.1740	0.79	0.03	5.00	5.00	7.412	-0.03581	7.18174	0.0
33.8927	67.1740	0.79	0.03	5.00	5.00	7.412	-0.03832	7.18173	0.0
33.9127	67.1740	0.79	0.03	5.00	5.00	7.412	-0.04083	7.18171	4.0
33.9327	67.1740	0.79	0.03	5.00	5.00	7.412	-0.04333	7.18170	0.0
33.9527	67.1740	0.79	0.03	5.00	5.00	7.412	-0.04584	7.18168	2.0
33.9727	67.1740	0.79	0.03	5.00	5.00	7.412	-0.04835	7.18167	0.0
33.9927	67.1740	0.79	0.03	5.00	5.00	7.412	-0.05085	7.18165	4.0
34.0127	67.1740	0.79	0.03	5.00	5.00	7.412	-0.05336	7.18163	8.0
34.0327	67.1740	0.79	0.03	5.00	5.00	7.412	-0.05587	7.18161	0.0
34.0527	67.1740	0.79	0.03	5.00	5.00	7.412	-0.05837	7.18159	0.0
34.0727	67.1740	0.79	0.03	5.00	5.00	7.412	-0.06088	7.18157	4.0
34.0927	67.1740	0.79	0.03	5.00	5.00	7.412	-0.06339	7.18155	6.0
34.1127	67.1740	0.79	0.03	5.00	5.00	7.412	-0.06589	7.18153	0.0
34.1327	67.1740	0.79	0.03	5.00	5.00	7.412	-0.06840	7.18150	6.0
34.1527	67.1740	0.79	0.03	5.00	5.00	7.412	-0.07091	7.18148	0.0
34.1727	67.1740	0.79	0.03	5.00	5.00	7.412	-0.07341	7.18145	2.0
34.1927	67.1740	0.79	0.03	5.00	5.00	7.412	-0.07592	7.18143	0.0
34.2127	67.1740	0.79	0.03	5.00	5.00	7.412	-0.07843	7.18140	4.0
34.2327	67.1740	0.79	0.03	5.00	5.00	7.412	-0.08093	7.18137	0.0
34.2527	67.1740	0.79	0.03	5.00	5.00	7.412	-0.08344	7.18134	4.0
34.2727	67.1740	0.79	0.03	5.00	5.00	7.412	-0.08595	7.18131	0.0
34.2927	67.1740	0.79	0.03	5.00	5.00	7.412	-0.08845	7.18128	0.0
34.3127	67.1740	0.79	0.03	5.00	5.00	7.412	-0.09096	7.18125	2.0
34.3327	67.1740	0.79	0.03	5.00	5.00	7.412	-0.09347	7.18122	0.0
34.3527	67.1740	0.79	0.03	5.00	5.00	7.412	-0.09597	7.18119	0.0
34.3727	67.1740	0.79	0.03	5.00	5.00	7.412	-0.09848	7.18115	4.0
34.3927	67.1740	0.79	0.03	5.00	5.00	7.412	-0.10099	7.18112	0.0
34.4127	67.1740	0.79	0.03	5.00	5.00	7.412	-0.10350	7.18108	2.0
34.4327	67.1740	0.79	0.03	5.00	5.00	7.412	-0.10600	7.18105	0.0
34.4527	67.1740	0.79	0.03	5.00	5.00	7.412	-0.10851	7.18101	2.0
34.4727	67.1740	0.79	0.03	5.00	5.00	7.412	-0.11102	7.18097	0.0
34.4927	67.1740	0.79	0.03	5.00	5.00	7.412	-0.11352	7.18093	2.0
34.5127	67.1740	0.79	0.03	5.00	5.00	7.412	-0.11603	7.18089	2.0
34.5327	67.1740	0.79	0.03	5.00	5.00	7.412	-0.11853	7.18085	0.0
34.5527	67.1740	0.79	0.03	5.00	5.00	7.412	-0.12104	7.18081	0.0
34.5727	67.1740	0.79	0.03	5.00	5.00	7.412	-0.12355	7.18077	2.0
34.5927	67.1740	0.79	0.03	5.00	5.00	7.412	-0.12605	7.18072	0.0
34.6127	67.1740	0.79	0.03	5.00	5.00	7.412	-0.12856	7.18068	0.0
34.6327	67.1740	0.79	0.03	5.00	5.00	7.412	-0.13107	7.18063	4.0
34.6527	67.1740	0.79	0.03	5.00	5.00	7.412	-0.13357	7.18059	0.0
34.6727	67.1740	0.79	0.03	5.00	5.00	7.412	-0.13608	7.18054	2.0
34.6927	67.1740	0.79	0.03	5.00	5.00	7.412	-0.13859	7.18049	0.0
34.7127	67.1740	0.79	0.03	5.00	5.00	7.412	-0.14109	7.18044	2.0

32.7227	67.1940	0.79	0.03	5.00	5.00	7.412	0.10962	7.18288	2.0
32.7427	67.1940	0.79	0.03	5.00	5.00	7.412	0.10711	7.18292	4.0
32.7627	67.1940	0.79	0.03	5.00	5.00	7.412	0.10460	7.18295	0.0
32.7827	67.1940	0.79	0.03	5.00	5.00	7.412	0.10209	7.18299	0.0
32.8027	67.1940	0.79	0.03	5.00	5.00	7.412	0.09959	7.18302	0.0
32.8227	67.1940	0.79	0.03	5.00	5.00	7.412	0.09708	7.18306	0.0
32.8427	67.1940	0.79	0.03	5.00	5.00	7.412	0.09457	7.18309	2.0
32.8627	67.1940	0.79	0.03	5.00	5.00	7.412	0.09206	7.18313	2.0
32.8827	67.1940	0.79	0.03	5.00	5.00	7.412	0.08956	7.18316	2.0
32.9027	67.1940	0.79	0.03	5.00	5.00	7.412	0.08705	7.18319	2.0
32.9227	67.1940	0.79	0.03	5.00	5.00	7.412	0.08454	7.18322	0.0
[...]
35.0527	70.1340	0.79	0.03	5.00	5.00	7.412	0.00186	7.45876	0.0
35.0727	70.1340	0.79	0.03	5.00	5.00	7.412	-0.00074	7.45876	0.0
35.0927	70.1340	0.79	0.03	5.00	5.00	7.412	-0.00335	7.45876	2.0
35.1127	70.1340	0.79	0.03	5.00	5.00	7.412	-0.00595	7.45876	0.0
35.1327	70.1340	0.79	0.03	5.00	5.00	7.412	-0.00855	7.45875	2.0
35.1527	70.1340	0.79	0.03	5.00	5.00	7.412	-0.01116	7.45875	0.0
35.1727	70.1340	0.79	0.03	5.00	5.00	7.412	-0.01376	7.45875	0.0
35.1927	70.1340	0.79	0.03	5.00	5.00	7.412	-0.01636	7.45874	2.0
35.2127	70.1340	0.79	0.03	5.00	5.00	7.412	-0.01897	7.45873	2.0
35.2327	70.1340	0.79	0.03	5.00	5.00	7.412	-0.02157	7.45873	0.0
35.2527	70.1340	0.79	0.03	5.00	5.00	7.412	-0.02417	7.45872	0.0
35.2727	70.1340	0.79	0.03	5.00	5.00	7.412	-0.02678	7.45871	0.0
35.2927	70.1340	0.79	0.03	5.00	5.00	7.412	-0.02938	7.45870	8.0
35.3127	70.1340	0.79	0.03	5.00	5.00	7.412	-0.03199	7.45869	0.0
35.3327	70.1340	0.79	0.03	5.00	5.00	7.412	-0.03459	7.45868	0.0
35.3527	70.1340	0.79	0.03	5.00	5.00	7.412	-0.03719	7.45867	0.0
35.3727	70.1340	0.79	0.03	5.00	5.00	7.412	-0.03980	7.45865	2.0
35.3927	70.1340	0.79	0.03	5.00	5.00	7.412	-0.04240	7.45864	2.0
35.4127	70.1340	0.79	0.03	5.00	5.00	7.412	-0.04500	7.45862	2.0
35.4327	70.1340	0.79	0.03	5.00	5.00	7.412	-0.04761	7.45861	6.0
35.4527	70.1340	0.79	0.03	5.00	5.00	7.412	-0.05021	7.45859	6.0
35.4727	70.1340	0.79	0.03	5.00	5.00	7.412	-0.05281	7.45857	2.0
35.4927	70.1340	0.79	0.03	5.00	5.00	7.412	-0.05542	7.45855	0.0
35.5127	70.1340	0.79	0.03	5.00	5.00	7.412	-0.05802	7.45853	2.0
35.5327	70.1340	0.79	0.03	5.00	5.00	7.412	-0.06062	7.45851	2.0
35.5527	70.1340	0.79	0.03	5.00	5.00	7.412	-0.06323	7.45849	0.0
35.5727	70.1340	0.79	0.03	5.00	5.00	7.412	-0.06583	7.45847	2.0
35.5927	70.1340	0.79	0.03	5.00	5.00	7.412	-0.06843	7.45844	0.0
35.6127	70.1340	0.79	0.03	5.00	5.00	7.412	-0.07104	7.45842	2.0
35.6327	70.1340	0.79	0.03	5.00	5.00	7.412	-0.07364	7.45839	0.0
35.6527	70.1340	0.79	0.03	5.00	5.00	7.412	-0.07625	7.45837	0.0
35.6727	70.1340	0.79	0.03	5.00	5.00	7.412	-0.07885	7.45834	0.0
35.6927	70.1340	0.79	0.03	5.00	5.00	7.412	-0.08145	7.45831	0.0
35.7127	70.1340	0.79	0.03	5.00	5.00	7.412	-0.08406	7.45828	0.0
35.7327	70.1340	0.79	0.03	5.00	5.00	7.412	-0.08666	7.45825	2.0
35.7527	70.1340	0.79	0.03	5.00	5.00	7.412	-0.08926	7.45822	2.0
35.7727	70.1340	0.79	0.03	5.00	5.00	7.412	-0.09187	7.45819	0.0
35.7927	70.1340	0.79	0.03	5.00	5.00	7.412	-0.09447	7.45816	2.0
35.8127	70.1340	0.79	0.03	5.00	5.00	7.412	-0.09707	7.45813	0.0
35.8327	70.1340	0.79	0.03	5.00	5.00	7.412	-0.09968	7.45809	0.0
35.8527	70.1340	0.79	0.03	5.00	5.00	7.412	-0.10228	7.45806	6.0
35.8727	70.1340	0.79	0.03	5.00	5.00	7.412	-0.10488	7.45802	2.0
35.8927	70.1340	0.79	0.03	5.00	5.00	7.412	-0.10749	7.45798	0.0
35.9127	70.1340	0.79	0.03	5.00	5.00	7.412	-0.11009	7.45795	0.0
35.9327	70.1340	0.79	0.03	5.00	5.00	7.412	-0.11269	7.45791	0.0
35.9527	70.1340	0.79	0.03	5.00	5.00	7.412	-0.11530	7.45787	0.0
35.9727	70.1340	0.79	0.03	5.00	5.00	7.412	-0.11790	7.45783	0.0
35.9927	70.1340	0.79	0.03	5.00	5.00	7.412	-0.12050	7.45778	0.0
36.0127	70.1340	0.79	0.03	5.00	5.00	7.412	-0.12311	7.45774	2.0
36.0327	70.1340	0.79	0.03	5.00	5.00	7.412	-0.12571	7.45770	2.0
36.0527	70.1340	0.79	0.03	5.00	5.00	7.412	-0.12831	7.45765	0.0
36.0727	70.1340	0.79	0.03	5.00	5.00	7.412	-0.13092	7.45761	0.0
36.0927	70.1340	0.79	0.03	5.00	5.00	7.412	-0.13352	7.45756	0.0
36.1127	70.1340	0.79	0.03	5.00	5.00	7.412	-0.13612	7.45752	0.0
36.1327	70.1340	0.79	0.03	5.00	5.00	7.412	-0.13872	7.45747	2.0
36.1527	70.1340	0.79	0.03	5.00	5.00	7.412	-0.14133	7.45742	0.0
36.1727	70.1340	0.79	0.03	5.00	5.00	7.412	-0.14393	7.45737	2.0
36.1927	70.1340	0.79	0.03	5.00	5.00	7.412	-0.14653	7.45732	2.0