Folder: Thesis_XRD/Data/113xx/Omega2Theta (part 2)

File: 1.5deg-2.0deg-rsm-2h30mins_11358-annealed_004_w_000-100.dat
# filename: 1.5deg-2.0deg-rsm-2h30mins_11358-annealed_004.dat
# reflection: (004)
# type: Projection of 100 omega2theta scans
# x-axis: omega2theta
#
# Omega	2Theta	Phi  	Chi   	X    	Y    	Z    	q_para	q_perp	Intensity
# [deg]	[deg] 	[deg]	[deg] 	[mm] 	[mm] 	[mm] 	[nm-1]	[nm-1]	[counts/s]
33.2167	66.6682	-0.24	0.31	0.00	-23.01	7.396	0.01462	7.13364	1.2
33.2267	66.6882	-0.24	0.31	0.00	-23.01	7.396	0.01462	7.13553	1.3
33.2367	66.7082	-0.24	0.31	0.00	-23.01	7.396	0.01462	7.13742	1.2
33.2467	66.7282	-0.24	0.31	0.00	-23.01	7.396	0.01463	7.13932	1.4
33.2567	66.7482	-0.24	0.31	0.00	-23.01	7.396	0.01463	7.14121	1.0
33.2667	66.7682	-0.24	0.31	0.00	-23.01	7.396	0.01464	7.14310	1.2
33.2767	66.7882	-0.24	0.31	0.00	-23.01	7.396	0.01464	7.14499	1.1
33.2867	66.8082	-0.24	0.31	0.00	-23.01	7.396	0.01464	7.14688	1.4
33.2967	66.8282	-0.24	0.31	0.00	-23.01	7.396	0.01465	7.14877	1.0
33.3067	66.8482	-0.24	0.31	0.00	-23.01	7.396	0.01465	7.15067	1.0
33.3167	66.8682	-0.24	0.31	0.00	-23.01	7.396	0.01466	7.15256	1.3
33.3267	66.8882	-0.24	0.31	0.00	-23.01	7.396	0.01466	7.15445	1.1
33.3367	66.9082	-0.24	0.31	0.00	-23.01	7.396	0.01466	7.15634	1.1
33.3467	66.9282	-0.24	0.31	0.00	-23.01	7.396	0.01467	7.15823	0.9
33.3567	66.9482	-0.24	0.31	0.00	-23.01	7.396	0.01467	7.16012	1.2
33.3667	66.9682	-0.24	0.31	0.00	-23.01	7.396	0.01468	7.16201	1.1
33.3767	66.9882	-0.24	0.31	0.00	-23.01	7.396	0.01468	7.16390	1.4
33.3867	67.0082	-0.24	0.31	0.00	-23.01	7.396	0.01468	7.16579	0.9
33.3967	67.0282	-0.24	0.31	0.00	-23.01	7.396	0.01469	7.16768	1.4
33.4067	67.0482	-0.24	0.31	0.00	-23.01	7.396	0.01469	7.16956	1.4
33.4167	67.0682	-0.24	0.31	0.00	-23.01	7.396	0.01469	7.17145	1.4
33.4267	67.0882	-0.24	0.31	0.00	-23.01	7.396	0.01470	7.17334	1.4
33.4367	67.1082	-0.24	0.31	0.00	-23.01	7.396	0.01470	7.17523	1.3
33.4467	67.1282	-0.24	0.31	0.00	-23.01	7.396	0.01471	7.17712	1.1
33.4567	67.1482	-0.24	0.31	0.00	-23.01	7.396	0.01471	7.17901	1.4
33.4667	67.1682	-0.24	0.31	0.00	-23.01	7.396	0.01471	7.18089	1.3
33.4767	67.1882	-0.24	0.31	0.00	-23.01	7.396	0.01472	7.18278	1.4
33.4867	67.2082	-0.24	0.31	0.00	-23.01	7.396	0.01472	7.18467	1.4
33.4967	67.2282	-0.24	0.31	0.00	-23.01	7.396	0.01473	7.18656	1.7
33.5067	67.2482	-0.24	0.31	0.00	-23.01	7.396	0.01473	7.18844	1.4
33.5167	67.2682	-0.24	0.31	0.00	-23.01	7.396	0.01473	7.19033	1.3
33.5267	67.2882	-0.24	0.31	0.00	-23.01	7.396	0.01474	7.19221	1.6
33.5367	67.3082	-0.24	0.31	0.00	-23.01	7.396	0.01474	7.19410	1.5
33.5467	67.3282	-0.24	0.31	0.00	-23.01	7.396	0.01474	7.19599	1.6
33.5567	67.3482	-0.24	0.31	0.00	-23.01	7.396	0.01475	7.19787	1.2
33.5667	67.3682	-0.24	0.31	0.00	-23.01	7.396	0.01475	7.19976	1.7
33.5767	67.3882	-0.24	0.31	0.00	-23.01	7.396	0.01476	7.20164	1.8
33.5867	67.4082	-0.24	0.31	0.00	-23.01	7.396	0.01476	7.20353	1.5
33.5967	67.4282	-0.24	0.31	0.00	-23.01	7.396	0.01476	7.20541	1.6
33.6067	67.4482	-0.24	0.31	0.00	-23.01	7.396	0.01477	7.20730	1.5
33.6167	67.4682	-0.24	0.31	0.00	-23.01	7.396	0.01477	7.20918	1.6
33.6267	67.4882	-0.24	0.31	0.00	-23.01	7.396	0.01478	7.21107	1.6
33.6367	67.5082	-0.24	0.31	0.00	-23.01	7.396	0.01478	7.21295	1.9
33.6467	67.5282	-0.24	0.31	0.00	-23.01	7.396	0.01478	7.21483	1.9
33.6567	67.5482	-0.24	0.31	0.00	-23.01	7.396	0.01479	7.21672	1.8
33.6667	67.5682	-0.24	0.31	0.00	-23.01	7.396	0.01479	7.21860	2.0
33.6767	67.5882	-0.24	0.31	0.00	-23.01	7.396	0.01479	7.22048	2.1
33.6867	67.6082	-0.24	0.31	0.00	-23.01	7.396	0.01480	7.22237	1.9
33.6967	67.6282	-0.24	0.31	0.00	-23.01	7.396	0.01480	7.22425	2.1
33.7067	67.6482	-0.24	0.31	0.00	-23.01	7.396	0.01481	7.22613	2.0
33.7167	67.6682	-0.24	0.31	0.00	-23.01	7.396	0.01481	7.22801	2.5
33.7267	67.6882	-0.24	0.31	0.00	-23.01	7.396	0.01481	7.22989	2.9
33.7367	67.7082	-0.24	0.31	0.00	-23.01	7.396	0.01482	7.23178	2.6
33.7467	67.7282	-0.24	0.31	0.00	-23.01	7.396	0.01482	7.23366	3.4
33.7567	67.7482	-0.24	0.31	0.00	-23.01	7.396	0.01483	7.23554	3.2
33.7667	67.7682	-0.24	0.31	0.00	-23.01	7.396	0.01483	7.23742	3.4
33.7767	67.7882	-0.24	0.31	0.00	-23.01	7.396	0.01483	7.23930	3.8
33.7867	67.8082	-0.24	0.31	0.00	-23.01	7.396	0.01484	7.24118	5.7
33.7967	67.8282	-0.24	0.31	0.00	-23.01	7.396	0.01484	7.24306	6.6
33.8067	67.8482	-0.24	0.31	0.00	-23.01	7.396	0.01484	7.24494	9.8
33.8167	67.8682	-0.24	0.31	0.00	-23.01	7.396	0.01485	7.24682	22.7
33.8267	67.8882	-0.24	0.31	0.00	-23.01	7.396	0.01485	7.24870	88.0
33.8367	67.9082	-0.24	0.31	0.00	-23.01	7.396	0.01486	7.25058	378.1
33.8467	67.9282	-0.24	0.31	0.00	-23.01	7.396	0.01486	7.25246	1803.2
33.8567	67.9482	-0.24	0.31	0.00	-23.01	7.396	0.01486	7.25434	2865.7
33.8667	67.9682	-0.24	0.31	0.00	-23.01	7.396	0.01487	7.25622	997.0
33.8767	67.9882	-0.24	0.31	0.00	-23.01	7.396	0.01487	7.25810	325.7
33.8867	68.0082	-0.24	0.31	0.00	-23.01	7.396	0.01488	7.25997	225.5
33.8967	68.0282	-0.24	0.31	0.00	-23.01	7.396	0.01488	7.26185	208.0
33.9067	68.0482	-0.24	0.31	0.00	-23.01	7.396	0.01488	7.26373	207.1
33.9167	68.0682	-0.24	0.31	0.00	-23.01	7.396	0.01489	7.26561	205.4
33.9267	68.0882	-0.24	0.31	0.00	-23.01	7.396	0.01489	7.26749	210.9
33.9367	68.1082	-0.24	0.31	0.00	-23.01	7.396	0.01489	7.26936	212.5
33.9467	68.1282	-0.24	0.31	0.00	-23.01	7.396	0.01490	7.27124	215.9
33.9567	68.1482	-0.24	0.31	0.00	-23.01	7.396	0.01490	7.27312	216.1
33.9667	68.1682	-0.24	0.31	0.00	-23.01	7.396	0.01491	7.27499	223.9
33.9767	68.1882	-0.24	0.31	0.00	-23.01	7.396	0.01491	7.27687	224.5
33.9867	68.2082	-0.24	0.31	0.00	-23.01	7.396	0.01491	7.27875	225.8
33.9967	68.2282	-0.24	0.31	0.00	-23.01	7.396	0.01492	7.28062	222.3
34.0067	68.2482	-0.24	0.31	0.00	-23.01	7.396	0.01492	7.28250	216.2
34.0167	68.2682	-0.24	0.31	0.00	-23.01	7.396	0.01493	7.28437	210.1
34.0267	68.2882	-0.24	0.31	0.00	-23.01	7.396	0.01493	7.28625	204.3
34.0367	68.3082	-0.24	0.31	0.00	-23.01	7.396	0.01493	7.28812	198.8
34.0467	68.3282	-0.24	0.31	0.00	-23.01	7.396	0.01494	7.29000	200.0
34.0567	68.3482	-0.24	0.31	0.00	-23.01	7.396	0.01494	7.29187	192.8
34.0667	68.3682	-0.24	0.31	0.00	-23.01	7.396	0.01495	7.29375	190.1
34.0767	68.3882	-0.24	0.31	0.00	-23.01	7.396	0.01495	7.29562	188.4
34.0867	68.4082	-0.24	0.31	0.00	-23.01	7.396	0.01495	7.29750	184.6
34.0967	68.4282	-0.24	0.31	0.00	-23.01	7.396	0.01496	7.29937	180.0
34.1067	68.4482	-0.24	0.31	0.00	-23.01	7.396	0.01496	7.30124	183.5
34.1167	68.4682	-0.24	0.31	0.00	-23.01	7.396	0.01496	7.30312	180.4
34.1267	68.4882	-0.24	0.31	0.00	-23.01	7.396	0.01497	7.30499	180.3
34.1367	68.5082	-0.24	0.31	0.00	-23.01	7.396	0.01497	7.30686	178.9
34.1467	68.5282	-0.24	0.31	0.00	-23.01	7.396	0.01498	7.30874	172.8
34.1567	68.5482	-0.24	0.31	0.00	-23.01	7.396	0.01498	7.31061	172.3
34.1667	68.5682	-0.24	0.31	0.00	-23.01	7.396	0.01498	7.31248	165.3
34.1767	68.5882	-0.24	0.31	0.00	-23.01	7.396	0.01499	7.31435	162.9
34.1867	68.6082	-0.24	0.31	0.00	-23.01	7.396	0.01499	7.31622	160.2
34.1967	68.6282	-0.24	0.31	0.00	-23.01	7.396	0.01499	7.31810	160.1
34.2067	68.6482	-0.24	0.31	0.00	-23.01	7.396	0.01500	7.31997	157.3
34.2167	68.6682	-0.24	0.31	0.00	-23.01	7.396	0.01500	7.32184	161.4
34.2267	68.6882	-0.24	0.31	0.00	-23.01	7.396	0.01501	7.32371	158.3
34.2367	68.7082	-0.24	0.31	0.00	-23.01	7.396	0.01501	7.32558	158.3
34.2467	68.7282	-0.24	0.31	0.00	-23.01	7.396	0.01501	7.32745	150.7
34.2567	68.7482	-0.24	0.31	0.00	-23.01	7.396	0.01502	7.32932	149.2
34.2667	68.7682	-0.24	0.31	0.00	-23.01	7.396	0.01502	7.33119	148.1
34.2767	68.7882	-0.24	0.31	0.00	-23.01	7.396	0.01503	7.33306	146.0
34.2867	68.8082	-0.24	0.31	0.00	-23.01	7.396	0.01503	7.33493	148.9
34.2967	68.8282	-0.24	0.31	0.00	-23.01	7.396	0.01503	7.33680	147.1
34.3067	68.8482	-0.24	0.31	0.00	-23.01	7.396	0.01504	7.33867	144.6
34.3167	68.8682	-0.24	0.31	0.00	-23.01	7.396	0.01504	7.34054	141.1
34.3267	68.8882	-0.24	0.31	0.00	-23.01	7.396	0.01504	7.34240	140.1
34.3367	68.9082	-0.24	0.31	0.00	-23.01	7.396	0.01505	7.34427	136.2
34.3467	68.9282	-0.24	0.31	0.00	-23.01	7.396	0.01505	7.34614	133.6
34.3567	68.9482	-0.24	0.31	0.00	-23.01	7.396	0.01506	7.34801	134.1
34.3667	68.9682	-0.24	0.31	0.00	-23.01	7.396	0.01506	7.34988	132.2
34.3767	68.9882	-0.24	0.31	0.00	-23.01	7.396	0.01506	7.35174	129.3
34.3867	69.0082	-0.24	0.31	0.00	-23.01	7.396	0.01507	7.35361	124.3
34.3967	69.0282	-0.24	0.31	0.00	-23.01	7.396	0.01507	7.35548	118.1
34.4067	69.0482	-0.24	0.31	0.00	-23.01	7.396	0.01508	7.35735	112.1
34.4167	69.0682	-0.24	0.31	0.00	-23.01	7.396	0.01508	7.35921	106.1
34.4267	69.0882	-0.24	0.31	0.00	-23.01	7.396	0.01508	7.36108	104.8
34.4367	69.1082	-0.24	0.31	0.00	-23.01	7.396	0.01509	7.36294	133.9
34.4467	69.1282	-0.24	0.31	0.00	-23.01	7.396	0.01509	7.36481	988.5
34.4567	69.1482	-0.24	0.31	0.00	-23.01	7.396	0.01509	7.36668	5042.4
34.4667	69.1682	-0.24	0.31	0.00	-23.01	7.396	0.01510	7.36854	2403.9
34.4767	69.1882	-0.24	0.31	0.00	-23.01	7.396	0.01510	7.37041	441.2
34.4867	69.2082	-0.24	0.31	0.00	-23.01	7.396	0.01511	7.37227	96.9
34.4967	69.2282	-0.24	0.31	0.00	-23.01	7.396	0.01511	7.37414	35.6
34.5067	69.2482	-0.24	0.31	0.00	-23.01	7.396	0.01511	7.37600	10.4
34.5167	69.2682	-0.24	0.31	0.00	-23.01	7.396	0.01512	7.37787	5.7
34.5267	69.2882	-0.24	0.31	0.00	-23.01	7.396	0.01512	7.37973	3.9
34.5367	69.3082	-0.24	0.31	0.00	-23.01	7.396	0.01513	7.38159	3.6
34.5467	69.3282	-0.24	0.31	0.00	-23.01	7.396	0.01513	7.38346	3.0
34.5567	69.3482	-0.24	0.31	0.00	-23.01	7.396	0.01513	7.38532	2.4
34.5667	69.3682	-0.24	0.31	0.00	-23.01	7.396	0.01514	7.38718	2.3
34.5767	69.3882	-0.24	0.31	0.00	-23.01	7.396	0.01514	7.38905	3.0
34.5867	69.4082	-0.24	0.31	0.00	-23.01	7.396	0.01514	7.39091	2.6
34.5967	69.4282	-0.24	0.31	0.00	-23.01	7.396	0.01515	7.39277	2.6
34.6067	69.4482	-0.24	0.31	0.00	-23.01	7.396	0.01515	7.39463	2.3
34.6167	69.4682	-0.24	0.31	0.00	-23.01	7.396	0.01516	7.39650	2.3
34.6267	69.4882	-0.24	0.31	0.00	-23.01	7.396	0.01516	7.39836	2.2
34.6367	69.5082	-0.24	0.31	0.00	-23.01	7.396	0.01516	7.40022	2.1
34.6467	69.5282	-0.24	0.31	0.00	-23.01	7.396	0.01517	7.40208	2.4
34.6567	69.5482	-0.24	0.31	0.00	-23.01	7.396	0.01517	7.40394	2.0
34.6667	69.5682	-0.24	0.31	0.00	-23.01	7.396	0.01517	7.40580	2.1
34.6767	69.5882	-0.24	0.31	0.00	-23.01	7.396	0.01518	7.40766	1.8
34.6867	69.6082	-0.24	0.31	0.00	-23.01	7.396	0.01518	7.40952	1.9
34.6967	69.6282	-0.24	0.31	0.00	-23.01	7.396	0.01519	7.41138	2.0

File: 2.0deg-2.0deg-rsm-3h10m_11354-annealed_224_w_000-100.dat
# filename: 2.0deg-2.0deg-rsm-3h10m_11354-annealed_224.dat
# reflection: (004)
# type: Projection of 100 omega2theta scans
# x-axis: omega2theta
#
# Omega	2Theta	Phi  	Chi   	X    	Y    	Z    	q_para	q_perp	Intensity
# [deg]	[deg] 	[deg]	[deg] 	[mm] 	[mm] 	[mm] 	[nm-1]	[nm-1]	[counts/s]
7.7951	85.0742	-0.10	0.10	0.00	-22.75	7.333	5.00154	7.21183	1.1
7.8151	85.1142	-0.10	0.10	0.00	-22.75	7.333	5.00344	7.21458	1.3
7.8351	85.1542	-0.10	0.10	0.00	-22.75	7.333	5.00534	7.21732	1.4
7.8551	85.1942	-0.10	0.10	0.00	-22.75	7.333	5.00724	7.22006	1.2
7.8751	85.2342	-0.10	0.10	0.00	-22.75	7.333	5.00914	7.22280	1.3
7.8951	85.2742	-0.10	0.10	0.00	-22.75	7.333	5.01104	7.22554	1.3
7.9151	85.3142	-0.10	0.10	0.00	-22.75	7.333	5.01294	7.22828	1.4
7.9351	85.3542	-0.10	0.10	0.00	-22.75	7.333	5.01484	7.23102	1.6
7.9551	85.3942	-0.10	0.10	0.00	-22.75	7.333	5.01674	7.23375	1.7
7.9751	85.4342	-0.10	0.10	0.00	-22.75	7.333	5.01864	7.23649	1.5
7.9951	85.4742	-0.10	0.10	0.00	-22.75	7.333	5.02053	7.23923	1.6
8.0151	85.5142	-0.10	0.10	0.00	-22.75	7.333	5.02243	7.24196	1.5
8.0351	85.5542	-0.10	0.10	0.00	-22.75	7.333	5.02432	7.24469	1.6
8.0551	85.5942	-0.10	0.10	0.00	-22.75	7.333	5.02622	7.24743	1.6
8.0751	85.6342	-0.10	0.10	0.00	-22.75	7.333	5.02811	7.25016	1.6
8.0951	85.6742	-0.10	0.10	0.00	-22.75	7.333	5.03001	7.25289	1.5
8.1151	85.7142	-0.10	0.10	0.00	-22.75	7.333	5.03190	7.25562	1.8
8.1351	85.7542	-0.10	0.10	0.00	-22.75	7.333	5.03379	7.25835	2.2
8.1551	85.7942	-0.10	0.10	0.00	-22.75	7.333	5.03569	7.26108	1.8
8.1751	85.8342	-0.10	0.10	0.00	-22.75	7.333	5.03758	7.26380	2.0
8.1951	85.8742	-0.10	0.10	0.00	-22.75	7.333	5.03947	7.26653	1.9
8.2151	85.9142	-0.10	0.10	0.00	-22.75	7.333	5.04136	7.26926	2.3
8.2351	85.9542	-0.10	0.10	0.00	-22.75	7.333	5.04325	7.27198	2.4
8.2551	85.9942	-0.10	0.10	0.00	-22.75	7.333	5.04514	7.27470	2.7
8.2751	86.0342	-0.10	0.10	0.00	-22.75	7.333	5.04703	7.27743	2.6
8.2951	86.0742	-0.10	0.10	0.00	-22.75	7.333	5.04891	7.28015	2.8
8.3151	86.1142	-0.10	0.10	0.00	-22.75	7.333	5.05080	7.28287	3.5
8.3351	86.1542	-0.10	0.10	0.00	-22.75	7.333	5.05269	7.28559	4.3
8.3551	86.1942	-0.10	0.10	0.00	-22.75	7.333	5.05457	7.28831	4.9
8.3751	86.2342	-0.10	0.10	0.00	-22.75	7.333	5.05646	7.29103	8.5
8.3951	86.2742	-0.10	0.10	0.00	-22.75	7.333	5.05834	7.29375	22.8
8.4151	86.3142	-0.10	0.10	0.00	-22.75	7.333	5.06023	7.29646	173.2
8.4351	86.3542	-0.10	0.10	0.00	-22.75	7.333	5.06211	7.29918	2052.9
8.4551	86.3942	-0.10	0.10	0.00	-22.75	7.333	5.06399	7.30189	1602.3
8.4751	86.4342	-0.10	0.10	0.00	-22.75	7.333	5.06588	7.30461	357.3
8.4951	86.4742	-0.10	0.10	0.00	-22.75	7.333	5.06776	7.30732	192.7
8.5151	86.5142	-0.10	0.10	0.00	-22.75	7.333	5.06964	7.31003	175.0
8.5351	86.5542	-0.10	0.10	0.00	-22.75	7.333	5.07152	7.31275	169.2
8.5551	86.5942	-0.10	0.10	0.00	-22.75	7.333	5.07340	7.31546	168.9
8.5751	86.6342	-0.10	0.10	0.00	-22.75	7.333	5.07528	7.31817	173.0
8.5951	86.6742	-0.10	0.10	0.00	-22.75	7.333	5.07716	7.32087	171.1
8.6151	86.7142	-0.10	0.10	0.00	-22.75	7.333	5.07904	7.32358	174.3
8.6351	86.7542	-0.10	0.10	0.00	-22.75	7.333	5.08091	7.32629	168.8
8.6551	86.7942	-0.10	0.10	0.00	-22.75	7.333	5.08279	7.32899	160.6
8.6751	86.8342	-0.10	0.10	0.00	-22.75	7.333	5.08467	7.33170	152.8
8.6951	86.8742	-0.10	0.10	0.00	-22.75	7.333	5.08654	7.33440	147.1
8.7151	86.9142	-0.10	0.10	0.00	-22.75	7.333	5.08842	7.33711	143.0
8.7351	86.9542	-0.10	0.10	0.00	-22.75	7.333	5.09029	7.33981	133.0
8.7551	86.9942	-0.10	0.10	0.00	-22.75	7.333	5.09216	7.34251	134.9
8.7751	87.0342	-0.10	0.10	0.00	-22.75	7.333	5.09404	7.34521	128.4
8.7951	87.0742	-0.10	0.10	0.00	-22.75	7.333	5.09591	7.34791	129.3
8.8151	87.1142	-0.10	0.10	0.00	-22.75	7.333	5.09778	7.35061	127.2
8.8351	87.1542	-0.10	0.10	0.00	-22.75	7.333	5.09965	7.35331	122.9
8.8551	87.1942	-0.10	0.10	0.00	-22.75	7.333	5.10152	7.35601	117.2
8.8751	87.2342	-0.10	0.10	0.00	-22.75	7.333	5.10339	7.35870	112.5
8.8951	87.2742	-0.10	0.10	0.00	-22.75	7.333	5.10526	7.36140	109.9
8.9151	87.3142	-0.10	0.10	0.00	-22.75	7.333	5.10713	7.36409	106.4
8.9351	87.3542	-0.10	0.10	0.00	-22.75	7.333	5.10900	7.36679	106.7
8.9551	87.3942	-0.10	0.10	0.00	-22.75	7.333	5.11086	7.36948	106.0
8.9751	87.4342	-0.10	0.10	0.00	-22.75	7.333	5.11273	7.37217	101.5
8.9951	87.4742	-0.10	0.10	0.00	-22.75	7.333	5.11460	7.37486	93.4
9.0151	87.5142	-0.10	0.10	0.00	-22.75	7.333	5.11646	7.37755	93.1
9.0351	87.5542	-0.10	0.10	0.00	-22.75	7.333	5.11833	7.38024	93.6
9.0551	87.5942	-0.10	0.10	0.00	-22.75	7.333	5.12019	7.38293	91.3
9.0751	87.6342	-0.10	0.10	0.00	-22.75	7.333	5.12206	7.38562	90.8
9.0951	87.6742	-0.10	0.10	0.00	-22.75	7.333	5.12392	7.38830	87.3
9.1151	87.7142	-0.10	0.10	0.00	-22.75	7.333	5.12578	7.39099	82.9
9.1351	87.7542	-0.10	0.10	0.00	-22.75	7.333	5.12764	7.39367	81.3
9.1551	87.7942	-0.10	0.10	0.00	-22.75	7.333	5.12950	7.39636	81.0
9.1751	87.8342	-0.10	0.10	0.00	-22.75	7.333	5.13137	7.39904	77.2
9.1951	87.8742	-0.10	0.10	0.00	-22.75	7.333	5.13322	7.40172	74.8
9.2151	87.9142	-0.10	0.10	0.00	-22.75	7.333	5.13508	7.40440	71.6
9.2351	87.9542	-0.10	0.10	0.00	-22.75	7.333	5.13694	7.40708	69.4
9.2551	87.9942	-0.10	0.10	0.00	-22.75	7.333	5.13880	7.40976	90.3
9.2751	88.0342	-0.10	0.10	0.00	-22.75	7.333	5.14066	7.41244	1052.3
9.2951	88.0742	-0.10	0.10	0.00	-22.75	7.333	5.14252	7.41512	1089.3
9.3151	88.1142	-0.10	0.10	0.00	-22.75	7.333	5.14437	7.41779	143.4
9.3351	88.1542	-0.10	0.10	0.00	-22.75	7.333	5.14623	7.42047	12.8
9.3551	88.1942	-0.10	0.10	0.00	-22.75	7.333	5.14808	7.42314	6.5
9.3751	88.2342	-0.10	0.10	0.00	-22.75	7.333	5.14994	7.42581	4.2
9.3951	88.2742	-0.10	0.10	0.00	-22.75	7.333	5.15179	7.42849	2.7
9.4151	88.3142	-0.10	0.10	0.00	-22.75	7.333	5.15364	7.43116	2.2
9.4351	88.3542	-0.10	0.10	0.00	-22.75	7.333	5.15550	7.43383	2.6
9.4551	88.3942	-0.10	0.10	0.00	-22.75	7.333	5.15735	7.43650	2.1
9.4751	88.4342	-0.10	0.10	0.00	-22.75	7.333	5.15920	7.43917	2.1
9.4951	88.4742	-0.10	0.10	0.00	-22.75	7.333	5.16105	7.44184	1.7
9.5151	88.5142	-0.10	0.10	0.00	-22.75	7.333	5.16290	7.44451	1.9
9.5351	88.5542	-0.10	0.10	0.00	-22.75	7.333	5.16475	7.44717	1.7
9.5551	88.5942	-0.10	0.10	0.00	-22.75	7.333	5.16660	7.44984	1.7
9.5751	88.6342	-0.10	0.10	0.00	-22.75	7.333	5.16844	7.45250	1.9
9.5951	88.6742	-0.10	0.10	0.00	-22.75	7.333	5.17029	7.45517	1.6
9.6151	88.7142	-0.10	0.10	0.00	-22.75	7.333	5.17214	7.45783	1.5
9.6351	88.7542	-0.10	0.10	0.00	-22.75	7.333	5.17398	7.46049	1.5
9.6551	88.7942	-0.10	0.10	0.00	-22.75	7.333	5.17583	7.46315	1.5
9.6751	88.8342	-0.10	0.10	0.00	-22.75	7.333	5.17767	7.46581	1.6
9.6951	88.8742	-0.10	0.10	0.00	-22.75	7.333	5.17952	7.46847	1.8
9.7151	88.9142	-0.10	0.10	0.00	-22.75	7.333	5.18136	7.47113	1.6
9.7351	88.9542	-0.10	0.10	0.00	-22.75	7.333	5.18320	7.47379	1.4
9.7551	88.9942	-0.10	0.10	0.00	-22.75	7.333	5.18505	7.47644	1.1
9.7751	89.0342	-0.10	0.10	0.00	-22.75	7.333	5.18689	7.47910	1.6

File: 2.0deg-2.0deg-rsm-3h10m_11354-as-grown_224_w_000-100.dat
# filename: 2.0deg-2.0deg-rsm-3h10m_11354-as-grown_224.dat
# reflection: (004)
# type: Projection of 100 omega2theta scans
# x-axis: omega2theta
#
# Omega	2Theta	Phi  	Chi   	X    	Y    	Z    	q_para	q_perp	Intensity
# [deg]	[deg] 	[deg]	[deg] 	[mm] 	[mm] 	[mm] 	[nm-1]	[nm-1]	[counts/s]
6.8865	85.0720	1.74	0.08	10.00	20.00	7.278	5.11502	7.13156	1.8
6.9065	85.1120	1.74	0.08	10.00	20.00	7.278	5.11697	7.13428	1.7
6.9265	85.1520	1.74	0.08	10.00	20.00	7.278	5.11891	7.13699	1.3
6.9465	85.1920	1.74	0.08	10.00	20.00	7.278	5.12086	7.13970	1.5
6.9665	85.2320	1.74	0.08	10.00	20.00	7.278	5.12280	7.14241	1.7
6.9865	85.2720	1.74	0.08	10.00	20.00	7.278	5.12475	7.14512	1.4
7.0065	85.3120	1.74	0.08	10.00	20.00	7.278	5.12669	7.14783	1.8
7.0265	85.3520	1.74	0.08	10.00	20.00	7.278	5.12863	7.15054	1.6
7.0465	85.3920	1.74	0.08	10.00	20.00	7.278	5.13057	7.15324	1.7
7.0665	85.4320	1.74	0.08	10.00	20.00	7.278	5.13251	7.15595	1.5
7.0865	85.4720	1.74	0.08	10.00	20.00	7.278	5.13445	7.15865	1.6
7.1065	85.5120	1.74	0.08	10.00	20.00	7.278	5.13639	7.16136	2.0
7.1265	85.5520	1.74	0.08	10.00	20.00	7.278	5.13833	7.16406	1.7
7.1465	85.5920	1.74	0.08	10.00	20.00	7.278	5.14027	7.16676	1.9
7.1665	85.6320	1.74	0.08	10.00	20.00	7.278	5.14221	7.16946	1.8
7.1865	85.6720	1.74	0.08	10.00	20.00	7.278	5.14414	7.17216	1.8
7.2065	85.7120	1.74	0.08	10.00	20.00	7.278	5.14608	7.17486	1.9
7.2265	85.7520	1.74	0.08	10.00	20.00	7.278	5.14802	7.17756	1.9
7.2465	85.7920	1.74	0.08	10.00	20.00	7.278	5.14995	7.18026	2.1
7.2665	85.8320	1.74	0.08	10.00	20.00	7.278	5.15189	7.18296	2.4
7.2865	85.8720	1.74	0.08	10.00	20.00	7.278	5.15382	7.18565	2.4
7.3065	85.9120	1.74	0.08	10.00	20.00	7.278	5.15575	7.18835	2.4
7.3265	85.9520	1.74	0.08	10.00	20.00	7.278	5.15769	7.19104	2.4
7.3465	85.9920	1.74	0.08	10.00	20.00	7.278	5.15962	7.19374	2.8
7.3665	86.0320	1.74	0.08	10.00	20.00	7.278	5.16155	7.19643	3.1
7.3865	86.0720	1.74	0.08	10.00	20.00	7.278	5.16348	7.19912	3.3
7.4065	86.1120	1.74	0.08	10.00	20.00	7.278	5.16541	7.20181	3.6
7.4265	86.1520	1.74	0.08	10.00	20.00	7.278	5.16734	7.20450	4.0
7.4465	86.1920	1.74	0.08	10.00	20.00	7.278	5.16927	7.20719	5.3
7.4665	86.2320	1.74	0.08	10.00	20.00	7.278	5.17120	7.20988	6.5
7.4865	86.2720	1.74	0.08	10.00	20.00	7.278	5.17312	7.21257	19.1
7.5065	86.3120	1.74	0.08	10.00	20.00	7.278	5.17505	7.21526	121.4
7.5265	86.3520	1.74	0.08	10.00	20.00	7.278	5.17698	7.21794	1605.6
7.5465	86.3920	1.74	0.08	10.00	20.00	7.278	5.17890	7.22063	2050.7
7.5665	86.4320	1.74	0.08	10.00	20.00	7.278	5.18083	7.22331	403.0
7.5865	86.4720	1.74	0.08	10.00	20.00	7.278	5.18275	7.22599	191.9
7.6065	86.5120	1.74	0.08	10.00	20.00	7.278	5.18468	7.22868	176.7
7.6265	86.5520	1.74	0.08	10.00	20.00	7.278	5.18660	7.23136	171.9
7.6465	86.5920	1.74	0.08	10.00	20.00	7.278	5.18852	7.23404	166.9
7.6665	86.6320	1.74	0.08	10.00	20.00	7.278	5.19044	7.23672	170.8
7.6865	86.6720	1.74	0.08	10.00	20.00	7.278	5.19236	7.23940	172.6
7.7065	86.7120	1.74	0.08	10.00	20.00	7.278	5.19428	7.24207	172.2
7.7265	86.7520	1.74	0.08	10.00	20.00	7.278	5.19620	7.24475	168.6
7.7465	86.7920	1.74	0.08	10.00	20.00	7.278	5.19812	7.24743	160.9
7.7665	86.8320	1.74	0.08	10.00	20.00	7.278	5.20004	7.25010	154.6
7.7865	86.8720	1.74	0.08	10.00	20.00	7.278	5.20196	7.25278	148.8
7.8065	86.9120	1.74	0.08	10.00	20.00	7.278	5.20388	7.25545	140.5
7.8265	86.9520	1.74	0.08	10.00	20.00	7.278	5.20579	7.25812	134.9
7.8465	86.9920	1.74	0.08	10.00	20.00	7.278	5.20771	7.26079	125.3
7.8665	87.0320	1.74	0.08	10.00	20.00	7.278	5.20963	7.26346	128.2
7.8865	87.0720	1.74	0.08	10.00	20.00	7.278	5.21154	7.26613	125.0
7.9065	87.1120	1.74	0.08	10.00	20.00	7.278	5.21346	7.26880	120.5
7.9265	87.1520	1.74	0.08	10.00	20.00	7.278	5.21537	7.27147	117.7
7.9465	87.1920	1.74	0.08	10.00	20.00	7.278	5.21728	7.27414	113.8
7.9665	87.2320	1.74	0.08	10.00	20.00	7.278	5.21920	7.27680	107.1
7.9865	87.2720	1.74	0.08	10.00	20.00	7.278	5.22111	7.27947	105.3
8.0065	87.3120	1.74	0.08	10.00	20.00	7.278	5.22302	7.28213	102.3
8.0265	87.3520	1.74	0.08	10.00	20.00	7.278	5.22493	7.28480	102.3
8.0465	87.3920	1.74	0.08	10.00	20.00	7.278	5.22684	7.28746	99.2
8.0665	87.4320	1.74	0.08	10.00	20.00	7.278	5.22875	7.29012	92.6
8.0865	87.4720	1.74	0.08	10.00	20.00	7.278	5.23066	7.29278	91.8
8.1065	87.5120	1.74	0.08	10.00	20.00	7.278	5.23256	7.29544	87.4
8.1265	87.5520	1.74	0.08	10.00	20.00	7.278	5.23447	7.29810	86.9
8.1465	87.5920	1.74	0.08	10.00	20.00	7.278	5.23638	7.30076	87.1
8.1665	87.6320	1.74	0.08	10.00	20.00	7.278	5.23828	7.30342	85.0
8.1865	87.6720	1.74	0.08	10.00	20.00	7.278	5.24019	7.30608	83.1
8.2065	87.7120	1.74	0.08	10.00	20.00	7.278	5.24209	7.30873	80.7
8.2265	87.7520	1.74	0.08	10.00	20.00	7.278	5.24400	7.31139	78.0
8.2465	87.7920	1.74	0.08	10.00	20.00	7.278	5.24590	7.31404	79.7
8.2665	87.8320	1.74	0.08	10.00	20.00	7.278	5.24780	7.31669	75.5
8.2865	87.8720	1.74	0.08	10.00	20.00	7.278	5.24971	7.31934	73.1
8.3065	87.9120	1.74	0.08	10.00	20.00	7.278	5.25161	7.32200	70.1
8.3265	87.9520	1.74	0.08	10.00	20.00	7.278	5.25351	7.32465	68.6
8.3465	87.9920	1.74	0.08	10.00	20.00	7.278	5.25541	7.32730	76.8
8.3665	88.0320	1.74	0.08	10.00	20.00	7.278	5.25731	7.32994	513.6
8.3865	88.0720	1.74	0.08	10.00	20.00	7.278	5.25921	7.33259	695.8
8.4065	88.1120	1.74	0.08	10.00	20.00	7.278	5.26111	7.33524	93.7
8.4265	88.1520	1.74	0.08	10.00	20.00	7.278	5.26300	7.33788	10.1
8.4465	88.1920	1.74	0.08	10.00	20.00	7.278	5.26490	7.34053	4.4
8.4665	88.2320	1.74	0.08	10.00	20.00	7.278	5.26680	7.34317	3.4
8.4865	88.2720	1.74	0.08	10.00	20.00	7.278	5.26869	7.34582	2.0
8.5065	88.3120	1.74	0.08	10.00	20.00	7.278	5.27059	7.34846	2.4
8.5265	88.3520	1.74	0.08	10.00	20.00	7.278	5.27248	7.35110	1.8
8.5465	88.3920	1.74	0.08	10.00	20.00	7.278	5.27438	7.35374	2.1
8.5665	88.4320	1.74	0.08	10.00	20.00	7.278	5.27627	7.35638	2.5
8.5865	88.4720	1.74	0.08	10.00	20.00	7.278	5.27816	7.35902	1.6
8.6065	88.5120	1.74	0.08	10.00	20.00	7.278	5.28005	7.36166	1.9
8.6265	88.5520	1.74	0.08	10.00	20.00	7.278	5.28195	7.36429	1.8
8.6465	88.5920	1.74	0.08	10.00	20.00	7.278	5.28384	7.36693	1.5
8.6665	88.6320	1.74	0.08	10.00	20.00	7.278	5.28573	7.36956	2.2
8.6865	88.6720	1.74	0.08	10.00	20.00	7.278	5.28762	7.37220	1.4
8.7065	88.7120	1.74	0.08	10.00	20.00	7.278	5.28950	7.37483	1.4
8.7265	88.7520	1.74	0.08	10.00	20.00	7.278	5.29139	7.37746	1.4
8.7465	88.7920	1.74	0.08	10.00	20.00	7.278	5.29328	7.38010	1.3
8.7665	88.8320	1.74	0.08	10.00	20.00	7.278	5.29517	7.38273	1.6
8.7865	88.8720	1.74	0.08	10.00	20.00	7.278	5.29705	7.38536	1.5
8.8065	88.9120	1.74	0.08	10.00	20.00	7.278	5.29894	7.38798	1.5
8.8265	88.9520	1.74	0.08	10.00	20.00	7.278	5.30082	7.39061	1.6
8.8465	88.9920	1.74	0.08	10.00	20.00	7.278	5.30271	7.39324	1.6
8.8665	89.0320	1.74	0.08	10.00	20.00	7.278	5.30459	7.39587	1.6