Folder: Thesis_XRD/Data/113xx/Omega2Theta

File: 1.5deg-2.0deg-rsm-2h30mins_11354-as-grown_004_w_000-100.dat
# filename: 1.5deg-2.0deg-rsm-2h30mins_11354-as-grown_004.dat
# reflection: (004)
# type: Projection of 100 omega2theta scans
# x-axis: omega2theta
#
# Omega	2Theta	Phi  	Chi   	X    	Y    	Z    	q_para	q_perp	Intensity
# [deg]	[deg] 	[deg]	[deg] 	[mm] 	[mm] 	[mm] 	[nm-1]	[nm-1]	[counts/s]
32.9653	66.6698	1.74	0.02	10.00	20.00	7.278	0.04602	7.13366	1.0
32.9753	66.6898	1.74	0.02	10.00	20.00	7.278	0.04603	7.13555	0.8
32.9853	66.7098	1.74	0.02	10.00	20.00	7.278	0.04604	7.13744	1.2
32.9953	66.7298	1.74	0.02	10.00	20.00	7.278	0.04605	7.13933	1.0
33.0053	66.7498	1.74	0.02	10.00	20.00	7.278	0.04607	7.14123	0.9
33.0153	66.7698	1.74	0.02	10.00	20.00	7.278	0.04608	7.14312	0.9
33.0253	66.7898	1.74	0.02	10.00	20.00	7.278	0.04609	7.14501	1.1
33.0353	66.8098	1.74	0.02	10.00	20.00	7.278	0.04610	7.14690	1.0
33.0453	66.8298	1.74	0.02	10.00	20.00	7.278	0.04612	7.14879	1.1
33.0553	66.8498	1.74	0.02	10.00	20.00	7.278	0.04613	7.15068	1.2
33.0653	66.8698	1.74	0.02	10.00	20.00	7.278	0.04614	7.15257	1.3
33.0753	66.8898	1.74	0.02	10.00	20.00	7.278	0.04615	7.15446	1.1
33.0853	66.9098	1.74	0.02	10.00	20.00	7.278	0.04616	7.15635	1.0
33.0953	66.9298	1.74	0.02	10.00	20.00	7.278	0.04618	7.15824	1.0
33.1053	66.9498	1.74	0.02	10.00	20.00	7.278	0.04619	7.16013	1.2
33.1153	66.9698	1.74	0.02	10.00	20.00	7.278	0.04620	7.16202	1.1
33.1253	66.9898	1.74	0.02	10.00	20.00	7.278	0.04621	7.16391	1.5
33.1353	67.0098	1.74	0.02	10.00	20.00	7.278	0.04623	7.16580	1.4
33.1453	67.0298	1.74	0.02	10.00	20.00	7.278	0.04624	7.16769	1.3
33.1553	67.0498	1.74	0.02	10.00	20.00	7.278	0.04625	7.16958	1.2
33.1653	67.0698	1.74	0.02	10.00	20.00	7.278	0.04626	7.17147	1.2
33.1753	67.0898	1.74	0.02	10.00	20.00	7.278	0.04627	7.17336	1.3
33.1853	67.1098	1.74	0.02	10.00	20.00	7.278	0.04629	7.17525	1.3
33.1953	67.1298	1.74	0.02	10.00	20.00	7.278	0.04630	7.17713	1.3
33.2053	67.1498	1.74	0.02	10.00	20.00	7.278	0.04631	7.17902	1.3
33.2153	67.1698	1.74	0.02	10.00	20.00	7.278	0.04632	7.18091	1.3
33.2253	67.1898	1.74	0.02	10.00	20.00	7.278	0.04633	7.18280	1.3
33.2353	67.2098	1.74	0.02	10.00	20.00	7.278	0.04635	7.18468	1.4
33.2453	67.2298	1.74	0.02	10.00	20.00	7.278	0.04636	7.18657	1.2
33.2553	67.2498	1.74	0.02	10.00	20.00	7.278	0.04637	7.18846	1.6
33.2653	67.2698	1.74	0.02	10.00	20.00	7.278	0.04638	7.19034	1.3
33.2753	67.2898	1.74	0.02	10.00	20.00	7.278	0.04640	7.19223	1.4
33.2853	67.3098	1.74	0.02	10.00	20.00	7.278	0.04641	7.19412	1.3
33.2953	67.3298	1.74	0.02	10.00	20.00	7.278	0.04642	7.19600	1.2
33.3053	67.3498	1.74	0.02	10.00	20.00	7.278	0.04643	7.19789	1.5
33.3153	67.3698	1.74	0.02	10.00	20.00	7.278	0.04644	7.19977	1.4
33.3253	67.3898	1.74	0.02	10.00	20.00	7.278	0.04646	7.20166	1.4
33.3353	67.4098	1.74	0.02	10.00	20.00	7.278	0.04647	7.20354	1.7
33.3453	67.4298	1.74	0.02	10.00	20.00	7.278	0.04648	7.20543	1.2
33.3553	67.4498	1.74	0.02	10.00	20.00	7.278	0.04649	7.20731	1.4
33.3653	67.4698	1.74	0.02	10.00	20.00	7.278	0.04650	7.20920	1.9
33.3753	67.4898	1.74	0.02	10.00	20.00	7.278	0.04652	7.21108	1.8
33.3853	67.5098	1.74	0.02	10.00	20.00	7.278	0.04653	7.21297	1.6
33.3953	67.5298	1.74	0.02	10.00	20.00	7.278	0.04654	7.21485	1.7
33.4053	67.5498	1.74	0.02	10.00	20.00	7.278	0.04655	7.21673	1.7
33.4153	67.5698	1.74	0.02	10.00	20.00	7.278	0.04657	7.21862	1.7
33.4253	67.5898	1.74	0.02	10.00	20.00	7.278	0.04658	7.22050	2.2
33.4353	67.6098	1.74	0.02	10.00	20.00	7.278	0.04659	7.22238	2.1
33.4453	67.6298	1.74	0.02	10.00	20.00	7.278	0.04660	7.22426	2.2
33.4553	67.6498	1.74	0.02	10.00	20.00	7.278	0.04661	7.22615	2.1
33.4653	67.6698	1.74	0.02	10.00	20.00	7.278	0.04663	7.22803	2.5
33.4753	67.6898	1.74	0.02	10.00	20.00	7.278	0.04664	7.22991	2.4
33.4853	67.7098	1.74	0.02	10.00	20.00	7.278	0.04665	7.23179	2.7
33.4953	67.7298	1.74	0.02	10.00	20.00	7.278	0.04666	7.23367	2.9
33.5053	67.7498	1.74	0.02	10.00	20.00	7.278	0.04668	7.23555	3.0
33.5153	67.7698	1.74	0.02	10.00	20.00	7.278	0.04669	7.23744	3.6
33.5253	67.7898	1.74	0.02	10.00	20.00	7.278	0.04670	7.23932	4.7
33.5353	67.8098	1.74	0.02	10.00	20.00	7.278	0.04671	7.24120	5.2
33.5453	67.8298	1.74	0.02	10.00	20.00	7.278	0.04672	7.24308	8.4
33.5553	67.8498	1.74	0.02	10.00	20.00	7.278	0.04674	7.24496	20.4
33.5653	67.8698	1.74	0.02	10.00	20.00	7.278	0.04675	7.24684	77.6
33.5753	67.8898	1.74	0.02	10.00	20.00	7.278	0.04676	7.24872	328.4
33.5853	67.9098	1.74	0.02	10.00	20.00	7.278	0.04677	7.25060	1452.8
33.5953	67.9298	1.74	0.02	10.00	20.00	7.278	0.04678	7.25248	2634.9
33.6053	67.9498	1.74	0.02	10.00	20.00	7.278	0.04680	7.25435	1245.1
33.6153	67.9698	1.74	0.02	10.00	20.00	7.278	0.04681	7.25623	365.8
33.6253	67.9898	1.74	0.02	10.00	20.00	7.278	0.04682	7.25811	209.5
33.6353	68.0098	1.74	0.02	10.00	20.00	7.278	0.04683	7.25999	185.0
33.6453	68.0298	1.74	0.02	10.00	20.00	7.278	0.04685	7.26187	181.4
33.6553	68.0498	1.74	0.02	10.00	20.00	7.278	0.04686	7.26375	181.2
33.6653	68.0698	1.74	0.02	10.00	20.00	7.278	0.04687	7.26562	190.2
33.6753	68.0898	1.74	0.02	10.00	20.00	7.278	0.04688	7.26750	195.5
33.6853	68.1098	1.74	0.02	10.00	20.00	7.278	0.04689	7.26938	198.7
33.6953	68.1298	1.74	0.02	10.00	20.00	7.278	0.04691	7.27125	205.6
33.7053	68.1498	1.74	0.02	10.00	20.00	7.278	0.04692	7.27313	209.8
33.7153	68.1698	1.74	0.02	10.00	20.00	7.278	0.04693	7.27501	212.3
33.7253	68.1898	1.74	0.02	10.00	20.00	7.278	0.04694	7.27688	218.9
33.7353	68.2098	1.74	0.02	10.00	20.00	7.278	0.04695	7.27876	214.9
33.7453	68.2298	1.74	0.02	10.00	20.00	7.278	0.04697	7.28064	210.3
33.7553	68.2498	1.74	0.02	10.00	20.00	7.278	0.04698	7.28251	208.3
33.7653	68.2698	1.74	0.02	10.00	20.00	7.278	0.04699	7.28439	203.3
33.7753	68.2898	1.74	0.02	10.00	20.00	7.278	0.04700	7.28626	194.6
33.7853	68.3098	1.74	0.02	10.00	20.00	7.278	0.04701	7.28814	196.5
33.7953	68.3298	1.74	0.02	10.00	20.00	7.278	0.04703	7.29001	189.3
33.8053	68.3498	1.74	0.02	10.00	20.00	7.278	0.04704	7.29189	184.0
33.8153	68.3698	1.74	0.02	10.00	20.00	7.278	0.04705	7.29376	180.5
33.8253	68.3898	1.74	0.02	10.00	20.00	7.278	0.04706	7.29564	179.9
33.8353	68.4098	1.74	0.02	10.00	20.00	7.278	0.04708	7.29751	177.2
33.8453	68.4298	1.74	0.02	10.00	20.00	7.278	0.04709	7.29938	174.4
33.8553	68.4498	1.74	0.02	10.00	20.00	7.278	0.04710	7.30126	172.4
33.8653	68.4698	1.74	0.02	10.00	20.00	7.278	0.04711	7.30313	174.6
33.8753	68.4898	1.74	0.02	10.00	20.00	7.278	0.04712	7.30500	172.4
33.8853	68.5098	1.74	0.02	10.00	20.00	7.278	0.04714	7.30688	173.2
33.8953	68.5298	1.74	0.02	10.00	20.00	7.278	0.04715	7.30875	169.4
33.9053	68.5498	1.74	0.02	10.00	20.00	7.278	0.04716	7.31062	161.8
33.9153	68.5698	1.74	0.02	10.00	20.00	7.278	0.04717	7.31249	157.1
33.9253	68.5898	1.74	0.02	10.00	20.00	7.278	0.04718	7.31436	154.4
33.9353	68.6098	1.74	0.02	10.00	20.00	7.278	0.04720	7.31624	153.7
33.9453	68.6298	1.74	0.02	10.00	20.00	7.278	0.04721	7.31811	151.0
33.9553	68.6498	1.74	0.02	10.00	20.00	7.278	0.04722	7.31998	151.1
33.9653	68.6698	1.74	0.02	10.00	20.00	7.278	0.04723	7.32185	151.2
33.9753	68.6898	1.74	0.02	10.00	20.00	7.278	0.04724	7.32372	149.2
33.9853	68.7098	1.74	0.02	10.00	20.00	7.278	0.04726	7.32559	150.2
33.9953	68.7298	1.74	0.02	10.00	20.00	7.278	0.04727	7.32746	142.2
34.0053	68.7498	1.74	0.02	10.00	20.00	7.278	0.04728	7.32933	139.1
34.0153	68.7698	1.74	0.02	10.00	20.00	7.278	0.04729	7.33120	137.0
34.0253	68.7898	1.74	0.02	10.00	20.00	7.278	0.04730	7.33307	139.0
34.0353	68.8098	1.74	0.02	10.00	20.00	7.278	0.04732	7.33494	135.6
34.0453	68.8298	1.74	0.02	10.00	20.00	7.278	0.04733	7.33681	137.1
34.0553	68.8498	1.74	0.02	10.00	20.00	7.278	0.04734	7.33868	136.2
34.0653	68.8698	1.74	0.02	10.00	20.00	7.278	0.04735	7.34055	131.3
34.0753	68.8898	1.74	0.02	10.00	20.00	7.278	0.04736	7.34242	128.7
34.0853	68.9098	1.74	0.02	10.00	20.00	7.278	0.04738	7.34428	127.8
34.0953	68.9298	1.74	0.02	10.00	20.00	7.278	0.04739	7.34615	125.0
34.1053	68.9498	1.74	0.02	10.00	20.00	7.278	0.04740	7.34802	127.3
34.1153	68.9698	1.74	0.02	10.00	20.00	7.278	0.04741	7.34989	127.1
34.1253	68.9898	1.74	0.02	10.00	20.00	7.278	0.04742	7.35176	122.7
34.1353	69.0098	1.74	0.02	10.00	20.00	7.278	0.04744	7.35362	118.2
34.1453	69.0298	1.74	0.02	10.00	20.00	7.278	0.04745	7.35549	114.4
34.1553	69.0498	1.74	0.02	10.00	20.00	7.278	0.04746	7.35736	114.2
34.1653	69.0698	1.74	0.02	10.00	20.00	7.278	0.04747	7.35922	107.4
34.1753	69.0898	1.74	0.02	10.00	20.00	7.278	0.04748	7.36109	104.6
34.1853	69.1098	1.74	0.02	10.00	20.00	7.278	0.04750	7.36296	116.5
34.1953	69.1298	1.74	0.02	10.00	20.00	7.278	0.04751	7.36482	387.3
34.2053	69.1498	1.74	0.02	10.00	20.00	7.278	0.04752	7.36669	1483.3
34.2153	69.1698	1.74	0.02	10.00	20.00	7.278	0.04753	7.36855	841.3
34.2253	69.1898	1.74	0.02	10.00	20.00	7.278	0.04755	7.37042	214.3
34.2353	69.2098	1.74	0.02	10.00	20.00	7.278	0.04756	7.37228	47.5
34.2453	69.2298	1.74	0.02	10.00	20.00	7.278	0.04757	7.37415	15.4
34.2553	69.2498	1.74	0.02	10.00	20.00	7.278	0.04758	7.37601	6.8
34.2653	69.2698	1.74	0.02	10.00	20.00	7.278	0.04759	7.37788	4.4
34.2753	69.2898	1.74	0.02	10.00	20.00	7.278	0.04761	7.37974	3.2
34.2853	69.3098	1.74	0.02	10.00	20.00	7.278	0.04762	7.38160	3.0
34.2953	69.3298	1.74	0.02	10.00	20.00	7.278	0.04763	7.38347	2.8
34.3053	69.3498	1.74	0.02	10.00	20.00	7.278	0.04764	7.38533	2.8
34.3153	69.3698	1.74	0.02	10.00	20.00	7.278	0.04765	7.38719	2.4
34.3253	69.3898	1.74	0.02	10.00	20.00	7.278	0.04767	7.38906	2.6
34.3353	69.4098	1.74	0.02	10.00	20.00	7.278	0.04768	7.39092	2.1
34.3453	69.4298	1.74	0.02	10.00	20.00	7.278	0.04769	7.39278	1.9
34.3553	69.4498	1.74	0.02	10.00	20.00	7.278	0.04770	7.39464	2.4
34.3653	69.4698	1.74	0.02	10.00	20.00	7.278	0.04771	7.39651	2.2
34.3753	69.4898	1.74	0.02	10.00	20.00	7.278	0.04773	7.39837	2.3
34.3853	69.5098	1.74	0.02	10.00	20.00	7.278	0.04774	7.40023	2.5
34.3953	69.5298	1.74	0.02	10.00	20.00	7.278	0.04775	7.40209	2.1
34.4053	69.5498	1.74	0.02	10.00	20.00	7.278	0.04776	7.40395	1.9
34.4153	69.5698	1.74	0.02	10.00	20.00	7.278	0.04777	7.40581	1.9
34.4253	69.5898	1.74	0.02	10.00	20.00	7.278	0.04779	7.40767	2.0
34.4353	69.6098	1.74	0.02	10.00	20.00	7.278	0.04780	7.40953	2.0
34.4453	69.6298	1.74	0.02	10.00	20.00	7.278	0.04781	7.41139	2.1

File: 1.5deg-2.0deg-rsm-2h30mins_11355-annealed_004_w_000-100.dat
# filename: 1.5deg-2.0deg-rsm-2h30mins_11355-annealed_004.dat
# reflection: (004)
# type: Projection of 100 omega2theta scans
# x-axis: omega2theta
#
# Omega	2Theta	Phi  	Chi   	X    	Y    	Z    	q_para	q_perp	Intensity
# [deg]	[deg] 	[deg]	[deg] 	[mm] 	[mm] 	[mm] 	[nm-1]	[nm-1]	[counts/s]
33.6813	66.6668	-0.70	-0.27	0.00	15.50	7.376	-0.04331	7.13339	0.8
33.6913	66.6868	-0.70	-0.27	0.00	15.50	7.376	-0.04333	7.13528	0.8
33.7013	66.7068	-0.70	-0.27	0.00	15.50	7.376	-0.04334	7.13717	0.7
33.7113	66.7268	-0.70	-0.27	0.00	15.50	7.376	-0.04335	7.13907	1.2
33.7213	66.7468	-0.70	-0.27	0.00	15.50	7.376	-0.04336	7.14096	0.7
33.7313	66.7668	-0.70	-0.27	0.00	15.50	7.376	-0.04337	7.14285	0.9
33.7413	66.7868	-0.70	-0.27	0.00	15.50	7.376	-0.04338	7.14474	0.8
33.7513	66.8068	-0.70	-0.27	0.00	15.50	7.376	-0.04339	7.14663	0.9
33.7613	66.8268	-0.70	-0.27	0.00	15.50	7.376	-0.04341	7.14853	1.0
33.7713	66.8468	-0.70	-0.27	0.00	15.50	7.376	-0.04342	7.15042	0.9
33.7813	66.8668	-0.70	-0.27	0.00	15.50	7.376	-0.04343	7.15231	0.9
33.7913	66.8868	-0.70	-0.27	0.00	15.50	7.376	-0.04344	7.15420	0.9
33.8013	66.9068	-0.70	-0.27	0.00	15.50	7.376	-0.04345	7.15609	1.2
33.8113	66.9268	-0.70	-0.27	0.00	15.50	7.376	-0.04346	7.15798	1.1
33.8213	66.9468	-0.70	-0.27	0.00	15.50	7.376	-0.04348	7.15987	0.9
33.8313	66.9668	-0.70	-0.27	0.00	15.50	7.376	-0.04349	7.16176	0.7
33.8413	66.9868	-0.70	-0.27	0.00	15.50	7.376	-0.04350	7.16365	0.8
33.8513	67.0068	-0.70	-0.27	0.00	15.50	7.376	-0.04351	7.16554	1.0
33.8613	67.0268	-0.70	-0.27	0.00	15.50	7.376	-0.04352	7.16743	0.9
33.8713	67.0468	-0.70	-0.27	0.00	15.50	7.376	-0.04353	7.16932	0.9
33.8813	67.0668	-0.70	-0.27	0.00	15.50	7.376	-0.04354	7.17120	0.9
33.8913	67.0868	-0.70	-0.27	0.00	15.50	7.376	-0.04356	7.17309	0.9
33.9013	67.1068	-0.70	-0.27	0.00	15.50	7.376	-0.04357	7.17498	0.8
33.9113	67.1268	-0.70	-0.27	0.00	15.50	7.376	-0.04358	7.17687	1.1
33.9213	67.1468	-0.70	-0.27	0.00	15.50	7.376	-0.04359	7.17876	0.8
33.9313	67.1668	-0.70	-0.27	0.00	15.50	7.376	-0.04360	7.18064	1.0
33.9413	67.1868	-0.70	-0.27	0.00	15.50	7.376	-0.04361	7.18253	0.9
33.9513	67.2068	-0.70	-0.27	0.00	15.50	7.376	-0.04362	7.18442	0.8
33.9613	67.2268	-0.70	-0.27	0.00	15.50	7.376	-0.04364	7.18631	0.8
33.9713	67.2468	-0.70	-0.27	0.00	15.50	7.376	-0.04365	7.18819	0.8
33.9813	67.2668	-0.70	-0.27	0.00	15.50	7.376	-0.04366	7.19008	1.1
33.9913	67.2868	-0.70	-0.27	0.00	15.50	7.376	-0.04367	7.19197	0.8
34.0013	67.3068	-0.70	-0.27	0.00	15.50	7.376	-0.04368	7.19385	1.0
34.0113	67.3268	-0.70	-0.27	0.00	15.50	7.376	-0.04369	7.19574	0.9
34.0213	67.3468	-0.70	-0.27	0.00	15.50	7.376	-0.04370	7.19762	1.0
34.0313	67.3668	-0.70	-0.27	0.00	15.50	7.376	-0.04372	7.19951	0.9
34.0413	67.3868	-0.70	-0.27	0.00	15.50	7.376	-0.04373	7.20139	1.3
34.0513	67.4068	-0.70	-0.27	0.00	15.50	7.376	-0.04374	7.20328	0.8
34.0613	67.4268	-0.70	-0.27	0.00	15.50	7.376	-0.04375	7.20516	1.2
34.0713	67.4468	-0.70	-0.27	0.00	15.50	7.376	-0.04376	7.20705	1.1
34.0813	67.4668	-0.70	-0.27	0.00	15.50	7.376	-0.04377	7.20893	1.1
34.0913	67.4868	-0.70	-0.27	0.00	15.50	7.376	-0.04378	7.21082	1.1
34.1013	67.5068	-0.70	-0.27	0.00	15.50	7.376	-0.04380	7.21270	1.2
34.1113	67.5268	-0.70	-0.27	0.00	15.50	7.376	-0.04381	7.21458	1.0
34.1213	67.5468	-0.70	-0.27	0.00	15.50	7.376	-0.04382	7.21647	1.1
34.1313	67.5668	-0.70	-0.27	0.00	15.50	7.376	-0.04383	7.21835	1.1
34.1413	67.5868	-0.70	-0.27	0.00	15.50	7.376	-0.04384	7.22023	1.0
34.1513	67.6068	-0.70	-0.27	0.00	15.50	7.376	-0.04385	7.22212	1.3
34.1613	67.6268	-0.70	-0.27	0.00	15.50	7.376	-0.04386	7.22400	1.0
34.1713	67.6468	-0.70	-0.27	0.00	15.50	7.376	-0.04388	7.22588	1.2
34.1813	67.6668	-0.70	-0.27	0.00	15.50	7.376	-0.04389	7.22776	1.2
34.1913	67.6868	-0.70	-0.27	0.00	15.50	7.376	-0.04390	7.22964	1.5
34.2013	67.7068	-0.70	-0.27	0.00	15.50	7.376	-0.04391	7.23153	1.5
34.2113	67.7268	-0.70	-0.27	0.00	15.50	7.376	-0.04392	7.23341	1.4
34.2213	67.7468	-0.70	-0.27	0.00	15.50	7.376	-0.04393	7.23529	1.6
34.2313	67.7668	-0.70	-0.27	0.00	15.50	7.376	-0.04394	7.23717	1.6
34.2413	67.7868	-0.70	-0.27	0.00	15.50	7.376	-0.04396	7.23905	1.7
34.2513	67.8068	-0.70	-0.27	0.00	15.50	7.376	-0.04397	7.24093	1.7
34.2613	67.8268	-0.70	-0.27	0.00	15.50	7.376	-0.04398	7.24281	2.1
34.2713	67.8468	-0.70	-0.27	0.00	15.50	7.376	-0.04399	7.24469	2.9
34.2813	67.8668	-0.70	-0.27	0.00	15.50	7.376	-0.04400	7.24657	4.5
34.2913	67.8868	-0.70	-0.27	0.00	15.50	7.376	-0.04401	7.24845	15.8
34.3013	67.9068	-0.70	-0.27	0.00	15.50	7.376	-0.04402	7.25033	65.4
34.3113	67.9268	-0.70	-0.27	0.00	15.50	7.376	-0.04404	7.25221	356.8
34.3213	67.9468	-0.70	-0.27	0.00	15.50	7.376	-0.04405	7.25409	656.9
34.3313	67.9668	-0.70	-0.27	0.00	15.50	7.376	-0.04406	7.25597	223.1
34.3413	67.9868	-0.70	-0.27	0.00	15.50	7.376	-0.04407	7.25785	69.1
34.3513	68.0068	-0.70	-0.27	0.00	15.50	7.376	-0.04408	7.25973	49.7
34.3613	68.0268	-0.70	-0.27	0.00	15.50	7.376	-0.04409	7.26160	44.2
34.3713	68.0468	-0.70	-0.27	0.00	15.50	7.376	-0.04410	7.26348	47.4
34.3813	68.0668	-0.70	-0.27	0.00	15.50	7.376	-0.04412	7.26536	45.6
34.3913	68.0868	-0.70	-0.27	0.00	15.50	7.376	-0.04413	7.26724	45.9
34.4013	68.1068	-0.70	-0.27	0.00	15.50	7.376	-0.04414	7.26911	45.7
34.4113	68.1268	-0.70	-0.27	0.00	15.50	7.376	-0.04415	7.27099	45.9
34.4213	68.1468	-0.70	-0.27	0.00	15.50	7.376	-0.04416	7.27287	46.0
34.4313	68.1668	-0.70	-0.27	0.00	15.50	7.376	-0.04417	7.27474	47.1
34.4413	68.1868	-0.70	-0.27	0.00	15.50	7.376	-0.04418	7.27662	48.1
34.4513	68.2068	-0.70	-0.27	0.00	15.50	7.376	-0.04420	7.27850	48.4
34.4613	68.2268	-0.70	-0.27	0.00	15.50	7.376	-0.04421	7.28037	46.9
34.4713	68.2468	-0.70	-0.27	0.00	15.50	7.376	-0.04422	7.28225	44.7
34.4813	68.2668	-0.70	-0.27	0.00	15.50	7.376	-0.04423	7.28412	44.9
34.4913	68.2868	-0.70	-0.27	0.00	15.50	7.376	-0.04424	7.28600	43.6
34.5013	68.3068	-0.70	-0.27	0.00	15.50	7.376	-0.04425	7.28787	42.2
34.5113	68.3268	-0.70	-0.27	0.00	15.50	7.376	-0.04426	7.28975	40.1
34.5213	68.3468	-0.70	-0.27	0.00	15.50	7.376	-0.04428	7.29162	38.3
34.5313	68.3668	-0.70	-0.27	0.00	15.50	7.376	-0.04429	7.29350	39.9
34.5413	68.3868	-0.70	-0.27	0.00	15.50	7.376	-0.04430	7.29537	37.9
34.5513	68.4068	-0.70	-0.27	0.00	15.50	7.376	-0.04431	7.29725	37.6
34.5613	68.4268	-0.70	-0.27	0.00	15.50	7.376	-0.04432	7.29912	38.2
34.5713	68.4468	-0.70	-0.27	0.00	15.50	7.376	-0.04433	7.30099	37.3
34.5813	68.4668	-0.70	-0.27	0.00	15.50	7.376	-0.04434	7.30287	38.0
34.5913	68.4868	-0.70	-0.27	0.00	15.50	7.376	-0.04436	7.30474	38.0
34.6013	68.5068	-0.70	-0.27	0.00	15.50	7.376	-0.04437	7.30661	37.2
34.6113	68.5268	-0.70	-0.27	0.00	15.50	7.376	-0.04438	7.30849	36.4
34.6213	68.5468	-0.70	-0.27	0.00	15.50	7.376	-0.04439	7.31036	34.2
34.6313	68.5668	-0.70	-0.27	0.00	15.50	7.376	-0.04440	7.31223	35.3
34.6413	68.5868	-0.70	-0.27	0.00	15.50	7.376	-0.04441	7.31410	35.1
34.6513	68.6068	-0.70	-0.27	0.00	15.50	7.376	-0.04442	7.31597	34.3
34.6613	68.6268	-0.70	-0.27	0.00	15.50	7.376	-0.04443	7.31784	34.1
34.6713	68.6468	-0.70	-0.27	0.00	15.50	7.376	-0.04445	7.31972	33.9
34.6813	68.6668	-0.70	-0.27	0.00	15.50	7.376	-0.04446	7.32159	34.0
34.6913	68.6868	-0.70	-0.27	0.00	15.50	7.376	-0.04447	7.32346	31.0
34.7013	68.7068	-0.70	-0.27	0.00	15.50	7.376	-0.04448	7.32533	34.4
34.7113	68.7268	-0.70	-0.27	0.00	15.50	7.376	-0.04449	7.32720	30.7
34.7213	68.7468	-0.70	-0.27	0.00	15.50	7.376	-0.04450	7.32907	30.7
34.7313	68.7668	-0.70	-0.27	0.00	15.50	7.376	-0.04451	7.33094	30.5
34.7413	68.7868	-0.70	-0.27	0.00	15.50	7.376	-0.04453	7.33281	30.2
34.7513	68.8068	-0.70	-0.27	0.00	15.50	7.376	-0.04454	7.33468	30.4
34.7613	68.8268	-0.70	-0.27	0.00	15.50	7.376	-0.04455	7.33655	30.5
34.7713	68.8468	-0.70	-0.27	0.00	15.50	7.376	-0.04456	7.33842	29.5
34.7813	68.8668	-0.70	-0.27	0.00	15.50	7.376	-0.04457	7.34028	29.9
34.7913	68.8868	-0.70	-0.27	0.00	15.50	7.376	-0.04458	7.34215	29.3
34.8013	68.9068	-0.70	-0.27	0.00	15.50	7.376	-0.04459	7.34402	28.1
34.8113	68.9268	-0.70	-0.27	0.00	15.50	7.376	-0.04460	7.34589	28.6
34.8213	68.9468	-0.70	-0.27	0.00	15.50	7.376	-0.04462	7.34776	28.0
34.8313	68.9668	-0.70	-0.27	0.00	15.50	7.376	-0.04463	7.34963	28.0
34.8413	68.9868	-0.70	-0.27	0.00	15.50	7.376	-0.04464	7.35149	26.6
34.8513	69.0068	-0.70	-0.27	0.00	15.50	7.376	-0.04465	7.35336	27.1
34.8613	69.0268	-0.70	-0.27	0.00	15.50	7.376	-0.04466	7.35523	26.8
34.8713	69.0468	-0.70	-0.27	0.00	15.50	7.376	-0.04467	7.35709	24.3
34.8813	69.0668	-0.70	-0.27	0.00	15.50	7.376	-0.04468	7.35896	23.6
34.8913	69.0868	-0.70	-0.27	0.00	15.50	7.376	-0.04470	7.36083	24.1
34.9013	69.1068	-0.70	-0.27	0.00	15.50	7.376	-0.04471	7.36269	32.2
34.9113	69.1268	-0.70	-0.27	0.00	15.50	7.376	-0.04472	7.36456	284.7
34.9213	69.1468	-0.70	-0.27	0.00	15.50	7.376	-0.04473	7.36642	2589.0
34.9313	69.1668	-0.70	-0.27	0.00	15.50	7.376	-0.04474	7.36829	527.6
34.9413	69.1868	-0.70	-0.27	0.00	15.50	7.376	-0.04475	7.37015	56.6
34.9513	69.2068	-0.70	-0.27	0.00	15.50	7.376	-0.04476	7.37202	12.0
34.9613	69.2268	-0.70	-0.27	0.00	15.50	7.376	-0.04477	7.37388	6.9
34.9713	69.2468	-0.70	-0.27	0.00	15.50	7.376	-0.04479	7.37575	2.4
34.9813	69.2668	-0.70	-0.27	0.00	15.50	7.376	-0.04480	7.37761	1.8
34.9913	69.2868	-0.70	-0.27	0.00	15.50	7.376	-0.04481	7.37948	1.4
35.0013	69.3068	-0.70	-0.27	0.00	15.50	7.376	-0.04482	7.38134	1.0
35.0113	69.3268	-0.70	-0.27	0.00	15.50	7.376	-0.04483	7.38321	1.3
35.0213	69.3468	-0.70	-0.27	0.00	15.50	7.376	-0.04484	7.38507	1.3
35.0313	69.3668	-0.70	-0.27	0.00	15.50	7.376	-0.04485	7.38693	1.6
35.0413	69.3868	-0.70	-0.27	0.00	15.50	7.376	-0.04487	7.38879	1.2
35.0513	69.4068	-0.70	-0.27	0.00	15.50	7.376	-0.04488	7.39066	1.2
35.0613	69.4268	-0.70	-0.27	0.00	15.50	7.376	-0.04489	7.39252	1.2
35.0713	69.4468	-0.70	-0.27	0.00	15.50	7.376	-0.04490	7.39438	1.0
35.0813	69.4668	-0.70	-0.27	0.00	15.50	7.376	-0.04491	7.39624	1.4
35.0913	69.4868	-0.70	-0.27	0.00	15.50	7.376	-0.04492	7.39811	1.2
35.1013	69.5068	-0.70	-0.27	0.00	15.50	7.376	-0.04493	7.39997	1.3
35.1113	69.5268	-0.70	-0.27	0.00	15.50	7.376	-0.04494	7.40183	1.3
35.1213	69.5468	-0.70	-0.27	0.00	15.50	7.376	-0.04496	7.40369	0.9
35.1313	69.5668	-0.70	-0.27	0.00	15.50	7.376	-0.04497	7.40555	1.1
35.1413	69.5868	-0.70	-0.27	0.00	15.50	7.376	-0.04498	7.40741	1.2
35.1513	69.6068	-0.70	-0.27	0.00	15.50	7.376	-0.04499	7.40927	1.3
35.1613	69.6268	-0.70	-0.27	0.00	15.50	7.376	-0.04500	7.41113	1.0