Folder: Thesis_XRD/Data/113xx/Projected_0-200 (part 2)

File: 1.5deg-2.0deg-rsm-2h30mins_11355-annealed_004_w-scans_w_000-148.dat
# filename: 1.5deg-2.0deg-rsm-2h30mins_11355-annealed_004_w-scans.dat
# reflection: (004)
# type: Projection of 148 omega (rotated)  scans
# x-axis: omega
#
# Omega	2Theta	Phi  	Chi   	X    	Y    	Z    	q_para	q_perp	Intensity
# [deg]	[deg] 	[deg]	[deg] 	[mm] 	[mm] 	[mm] 	[nm-1]	[nm-1]	[counts/s]
33.4214	68.1468	-0.70	-0.27	0.00	15.50	7.376	0.08276	7.27270	0.9
33.4414	68.1468	-0.70	-0.27	0.00	15.50	7.376	0.08022	7.27273	0.9
33.4614	68.1468	-0.70	-0.27	0.00	15.50	7.376	0.07768	7.27276	0.9
33.4814	68.1468	-0.70	-0.27	0.00	15.50	7.376	0.07514	7.27278	0.8
33.5014	68.1468	-0.70	-0.27	0.00	15.50	7.376	0.07260	7.27281	1.2
33.5214	68.1468	-0.70	-0.27	0.00	15.50	7.376	0.07007	7.27284	0.9
33.5414	68.1468	-0.70	-0.27	0.00	15.50	7.376	0.06753	7.27286	1.0
33.5614	68.1468	-0.70	-0.27	0.00	15.50	7.376	0.06499	7.27288	1.0
33.5814	68.1468	-0.70	-0.27	0.00	15.50	7.376	0.06245	7.27291	1.0
33.6014	68.1468	-0.70	-0.27	0.00	15.50	7.376	0.05991	7.27293	0.8
33.6214	68.1468	-0.70	-0.27	0.00	15.50	7.376	0.05737	7.27295	1.0
33.6414	68.1468	-0.70	-0.27	0.00	15.50	7.376	0.05483	7.27297	0.8
33.6614	68.1468	-0.70	-0.27	0.00	15.50	7.376	0.05230	7.27299	1.1
33.6814	68.1468	-0.70	-0.27	0.00	15.50	7.376	0.04976	7.27300	1.0
33.7014	68.1468	-0.70	-0.27	0.00	15.50	7.376	0.04722	7.27302	0.9
33.7214	68.1468	-0.70	-0.27	0.00	15.50	7.376	0.04468	7.27304	0.9
33.7414	68.1468	-0.70	-0.27	0.00	15.50	7.376	0.04214	7.27305	0.9
33.7614	68.1468	-0.70	-0.27	0.00	15.50	7.376	0.03960	7.27306	1.0
33.7814	68.1468	-0.70	-0.27	0.00	15.50	7.376	0.03706	7.27308	1.1
33.8014	68.1468	-0.70	-0.27	0.00	15.50	7.376	0.03452	7.27309	1.0
33.8214	68.1468	-0.70	-0.27	0.00	15.50	7.376	0.03199	7.27310	0.9
33.8414	68.1468	-0.70	-0.27	0.00	15.50	7.376	0.02945	7.27311	1.0
33.8614	68.1468	-0.70	-0.27	0.00	15.50	7.376	0.02691	7.27312	1.0
33.8814	68.1468	-0.70	-0.27	0.00	15.50	7.376	0.02437	7.27313	1.1
33.9014	68.1468	-0.70	-0.27	0.00	15.50	7.376	0.02183	7.27314	1.2
33.9214	68.1468	-0.70	-0.27	0.00	15.50	7.376	0.01929	7.27315	1.2
33.9414	68.1468	-0.70	-0.27	0.00	15.50	7.376	0.01675	7.27315	1.2
33.9614	68.1468	-0.70	-0.27	0.00	15.50	7.376	0.01421	7.27316	1.7
33.9814	68.1468	-0.70	-0.27	0.00	15.50	7.376	0.01167	7.27316	1.9
34.0014	68.1468	-0.70	-0.27	0.00	15.50	7.376	0.00914	7.27317	2.0
34.0214	68.1468	-0.70	-0.27	0.00	15.50	7.376	0.00660	7.27317	2.3
34.0414	68.1468	-0.70	-0.27	0.00	15.50	7.376	0.00406	7.27317	3.0
34.0614	68.1468	-0.70	-0.27	0.00	15.50	7.376	0.00152	7.27317	3.1
34.0814	68.1468	-0.70	-0.27	0.00	15.50	7.376	-0.00102	7.27317	3.7
34.1014	68.1468	-0.70	-0.27	0.00	15.50	7.376	-0.00356	7.27317	4.0
34.1214	68.1468	-0.70	-0.27	0.00	15.50	7.376	-0.00610	7.27317	5.7
34.1414	68.1468	-0.70	-0.27	0.00	15.50	7.376	-0.00864	7.27317	9.1
34.1614	68.1468	-0.70	-0.27	0.00	15.50	7.376	-0.01117	7.27316	12.4
34.1814	68.1468	-0.70	-0.27	0.00	15.50	7.376	-0.01371	7.27316	18.6
34.2014	68.1468	-0.70	-0.27	0.00	15.50	7.376	-0.01625	7.27315	27.4
34.2214	68.1468	-0.70	-0.27	0.00	15.50	7.376	-0.01879	7.27315	37.8
34.2414	68.1468	-0.70	-0.27	0.00	15.50	7.376	-0.02133	7.27314	48.6
34.2614	68.1468	-0.70	-0.27	0.00	15.50	7.376	-0.02387	7.27313	68.3
34.2814	68.1468	-0.70	-0.27	0.00	15.50	7.376	-0.02641	7.27312	83.6
34.3014	68.1468	-0.70	-0.27	0.00	15.50	7.376	-0.02895	7.27312	104.7
34.3214	68.1468	-0.70	-0.27	0.00	15.50	7.376	-0.03149	7.27310	125.0
34.3414	68.1468	-0.70	-0.27	0.00	15.50	7.376	-0.03402	7.27309	150.6
34.3614	68.1468	-0.70	-0.27	0.00	15.50	7.376	-0.03656	7.27308	171.0
34.3814	68.1468	-0.70	-0.27	0.00	15.50	7.376	-0.03910	7.27307	194.0
34.4014	68.1468	-0.70	-0.27	0.00	15.50	7.376	-0.04164	7.27305	245.1
34.4214	68.1468	-0.70	-0.27	0.00	15.50	7.376	-0.04418	7.27304	2419.4
34.4414	68.1468	-0.70	-0.27	0.00	15.50	7.376	-0.04672	7.27302	217.6
34.4614	68.1468	-0.70	-0.27	0.00	15.50	7.376	-0.04926	7.27301	157.4
34.4814	68.1468	-0.70	-0.27	0.00	15.50	7.376	-0.05180	7.27299	128.2
34.5014	68.1468	-0.70	-0.27	0.00	15.50	7.376	-0.05433	7.27297	104.7
34.5214	68.1468	-0.70	-0.27	0.00	15.50	7.376	-0.05687	7.27295	85.8
34.5414	68.1468	-0.70	-0.27	0.00	15.50	7.376	-0.05941	7.27293	66.6
34.5614	68.1468	-0.70	-0.27	0.00	15.50	7.376	-0.06195	7.27291	50.6
34.5814	68.1468	-0.70	-0.27	0.00	15.50	7.376	-0.06449	7.27289	37.5
34.6014	68.1468	-0.70	-0.27	0.00	15.50	7.376	-0.06703	7.27286	26.4
34.6214	68.1468	-0.70	-0.27	0.00	15.50	7.376	-0.06957	7.27284	18.7
34.6414	68.1468	-0.70	-0.27	0.00	15.50	7.376	-0.07211	7.27282	12.9
34.6614	68.1468	-0.70	-0.27	0.00	15.50	7.376	-0.07464	7.27279	9.4
34.6814	68.1468	-0.70	-0.27	0.00	15.50	7.376	-0.07718	7.27276	6.5
34.7014	68.1468	-0.70	-0.27	0.00	15.50	7.376	-0.07972	7.27274	4.4
34.7214	68.1468	-0.70	-0.27	0.00	15.50	7.376	-0.08226	7.27271	3.1
34.7414	68.1468	-0.70	-0.27	0.00	15.50	7.376	-0.08480	7.27268	2.0
34.7614	68.1468	-0.70	-0.27	0.00	15.50	7.376	-0.08734	7.27265	1.9
34.7814	68.1468	-0.70	-0.27	0.00	15.50	7.376	-0.08988	7.27262	1.7
34.8014	68.1468	-0.70	-0.27	0.00	15.50	7.376	-0.09241	7.27259	1.6
34.8214	68.1468	-0.70	-0.27	0.00	15.50	7.376	-0.09495	7.27255	1.4
34.8414	68.1468	-0.70	-0.27	0.00	15.50	7.376	-0.09749	7.27252	1.3
34.8614	68.1468	-0.70	-0.27	0.00	15.50	7.376	-0.10003	7.27249	1.2
34.8814	68.1468	-0.70	-0.27	0.00	15.50	7.376	-0.10257	7.27245	1.0
34.9014	68.1468	-0.70	-0.27	0.00	15.50	7.376	-0.10511	7.27241	1.1
34.9214	68.1468	-0.70	-0.27	0.00	15.50	7.376	-0.10765	7.27238	1.0
34.9414	68.1468	-0.70	-0.27	0.00	15.50	7.376	-0.11018	7.27234	1.1
34.9614	68.1468	-0.70	-0.27	0.00	15.50	7.376	-0.11272	7.27230	1.0
34.9814	68.1468	-0.70	-0.27	0.00	15.50	7.376	-0.11526	7.27226	1.0
35.0014	68.1468	-0.70	-0.27	0.00	15.50	7.376	-0.11780	7.27222	1.2
35.0214	68.1468	-0.70	-0.27	0.00	15.50	7.376	-0.12034	7.27218	0.9
35.0414	68.1468	-0.70	-0.27	0.00	15.50	7.376	-0.12288	7.27214	1.1
35.0614	68.1468	-0.70	-0.27	0.00	15.50	7.376	-0.12542	7.27209	0.9
35.0814	68.1468	-0.70	-0.27	0.00	15.50	7.376	-0.12795	7.27205	1.1
35.1014	68.1468	-0.70	-0.27	0.00	15.50	7.376	-0.13049	7.27200	1.0
35.1214	68.1468	-0.70	-0.27	0.00	15.50	7.376	-0.13303	7.27196	1.0
35.1414	68.1468	-0.70	-0.27	0.00	15.50	7.376	-0.13557	7.27191	1.0
35.1614	68.1468	-0.70	-0.27	0.00	15.50	7.376	-0.13811	7.27186	1.2
35.1814	68.1468	-0.70	-0.27	0.00	15.50	7.376	-0.14065	7.27181	0.8
35.2014	68.1468	-0.70	-0.27	0.00	15.50	7.376	-0.14318	7.27176	1.0
35.2214	68.1468	-0.70	-0.27	0.00	15.50	7.376	-0.14572	7.27171	0.8
35.2414	68.1468	-0.70	-0.27	0.00	15.50	7.376	-0.14826	7.27166	1.0
35.2614	68.1468	-0.70	-0.27	0.00	15.50	7.376	-0.15080	7.27161	1.0
35.2814	68.1468	-0.70	-0.27	0.00	15.50	7.376	-0.15334	7.27156	1.0
35.3014	68.1468	-0.70	-0.27	0.00	15.50	7.376	-0.15588	7.27150	1.0
35.3214	68.1468	-0.70	-0.27	0.00	15.50	7.376	-0.15841	7.27145	1.1
35.3414	68.1468	-0.70	-0.27	0.00	15.50	7.376	-0.16095	7.27139	0.9
35.3614	68.1468	-0.70	-0.27	0.00	15.50	7.376	-0.16349	7.27134	1.0
35.3814	68.1468	-0.70	-0.27	0.00	15.50	7.376	-0.16603	7.27128	0.9
35.4014	68.1468	-0.70	-0.27	0.00	15.50	7.376	-0.16857	7.27122	0.8
35.1885	67.6994	-0.70	-0.27	0.00	15.40	7.326	-0.16996	7.22330	0.9

File: 1.5deg-2.0deg-rsm-2h30mins_11355-as-grown_004_w-scans_w_000-148.dat
# filename: 1.5deg-2.0deg-rsm-2h30mins_11355-as-grown_004_w-scans.dat
# reflection: (004)
# type: Projection of 148 omega (rotated)  scans
# x-axis: omega
#
# Omega	2Theta	Phi  	Chi   	X    	Y    	Z    	q_para	q_perp	Intensity
# [deg]	[deg] 	[deg]	[deg] 	[mm] 	[mm] 	[mm] 	[nm-1]	[nm-1]	[counts/s]
32.9087	68.1492	0.46	0.06	-30.00	-20.00	7.373	0.14799	7.27189	1.2
32.9287	68.1492	0.46	0.06	-30.00	-20.00	7.373	0.14545	7.27194	1.2
32.9487	68.1492	0.46	0.06	-30.00	-20.00	7.373	0.14291	7.27199	1.3
32.9687	68.1492	0.46	0.06	-30.00	-20.00	7.373	0.14038	7.27204	1.2
32.9887	68.1492	0.46	0.06	-30.00	-20.00	7.373	0.13784	7.27209	1.4
33.0087	68.1492	0.46	0.06	-30.00	-20.00	7.373	0.13530	7.27214	1.4
33.0287	68.1492	0.46	0.06	-30.00	-20.00	7.373	0.13276	7.27219	1.5
33.0487	68.1492	0.46	0.06	-30.00	-20.00	7.373	0.13022	7.27223	1.2
33.0687	68.1492	0.46	0.06	-30.00	-20.00	7.373	0.12768	7.27228	1.4
33.0887	68.1492	0.46	0.06	-30.00	-20.00	7.373	0.12514	7.27232	1.5
33.1087	68.1492	0.46	0.06	-30.00	-20.00	7.373	0.12261	7.27237	1.8
33.1287	68.1492	0.46	0.06	-30.00	-20.00	7.373	0.12007	7.27241	1.3
33.1487	68.1492	0.46	0.06	-30.00	-20.00	7.373	0.11753	7.27245	1.4
33.1687	68.1492	0.46	0.06	-30.00	-20.00	7.373	0.11499	7.27249	1.2
33.1887	68.1492	0.46	0.06	-30.00	-20.00	7.373	0.11245	7.27253	1.2
33.2087	68.1492	0.46	0.06	-30.00	-20.00	7.373	0.10991	7.27257	1.6
33.2287	68.1492	0.46	0.06	-30.00	-20.00	7.373	0.10737	7.27261	1.7
33.2487	68.1492	0.46	0.06	-30.00	-20.00	7.373	0.10484	7.27264	1.7
33.2687	68.1492	0.46	0.06	-30.00	-20.00	7.373	0.10230	7.27268	1.5
33.2887	68.1492	0.46	0.06	-30.00	-20.00	7.373	0.09976	7.27271	1.8
33.3087	68.1492	0.46	0.06	-30.00	-20.00	7.373	0.09722	7.27275	2.0
33.3287	68.1492	0.46	0.06	-30.00	-20.00	7.373	0.09468	7.27278	1.3
33.3487	68.1492	0.46	0.06	-30.00	-20.00	7.373	0.09214	7.27281	1.7
33.3687	68.1492	0.46	0.06	-30.00	-20.00	7.373	0.08960	7.27285	1.7
33.3887	68.1492	0.46	0.06	-30.00	-20.00	7.373	0.08707	7.27288	1.8
33.4087	68.1492	0.46	0.06	-30.00	-20.00	7.373	0.08453	7.27291	1.6
33.4287	68.1492	0.46	0.06	-30.00	-20.00	7.373	0.08199	7.27294	1.9
33.4487	68.1492	0.46	0.06	-30.00	-20.00	7.373	0.07945	7.27296	2.2
33.4687	68.1492	0.46	0.06	-30.00	-20.00	7.373	0.07691	7.27299	2.1
33.4887	68.1492	0.46	0.06	-30.00	-20.00	7.373	0.07437	7.27302	2.3
33.5087	68.1492	0.46	0.06	-30.00	-20.00	7.373	0.07183	7.27304	2.9
33.5287	68.1492	0.46	0.06	-30.00	-20.00	7.373	0.06929	7.27307	2.8
33.5487	68.1492	0.46	0.06	-30.00	-20.00	7.373	0.06676	7.27309	3.7
33.5687	68.1492	0.46	0.06	-30.00	-20.00	7.373	0.06422	7.27311	4.8
33.5887	68.1492	0.46	0.06	-30.00	-20.00	7.373	0.06168	7.27314	6.1
33.6087	68.1492	0.46	0.06	-30.00	-20.00	7.373	0.05914	7.27316	8.6
33.6287	68.1492	0.46	0.06	-30.00	-20.00	7.373	0.05660	7.27318	12.8
33.6487	68.1492	0.46	0.06	-30.00	-20.00	7.373	0.05406	7.27320	18.6
33.6687	68.1492	0.46	0.06	-30.00	-20.00	7.373	0.05152	7.27322	27.8
33.6887	68.1492	0.46	0.06	-30.00	-20.00	7.373	0.04898	7.27323	41.0
33.7087	68.1492	0.46	0.06	-30.00	-20.00	7.373	0.04644	7.27325	60.8
33.7287	68.1492	0.46	0.06	-30.00	-20.00	7.373	0.04391	7.27327	88.8
33.7487	68.1492	0.46	0.06	-30.00	-20.00	7.373	0.04137	7.27328	131.9
33.7687	68.1492	0.46	0.06	-30.00	-20.00	7.373	0.03883	7.27329	187.8
33.7887	68.1492	0.46	0.06	-30.00	-20.00	7.373	0.03629	7.27331	256.6
33.8087	68.1492	0.46	0.06	-30.00	-20.00	7.373	0.03375	7.27332	351.8
33.8287	68.1492	0.46	0.06	-30.00	-20.00	7.373	0.03121	7.27333	461.3
33.8487	68.1492	0.46	0.06	-30.00	-20.00	7.373	0.02867	7.27334	583.4
33.8687	68.1492	0.46	0.06	-30.00	-20.00	7.373	0.02613	7.27335	727.9
33.8887	68.1492	0.46	0.06	-30.00	-20.00	7.373	0.02359	7.27336	997.2
33.9087	68.1492	0.46	0.06	-30.00	-20.00	7.373	0.02106	7.27337	7235.9
33.9287	68.1492	0.46	0.06	-30.00	-20.00	7.373	0.01852	7.27337	1182.4
33.9487	68.1492	0.46	0.06	-30.00	-20.00	7.373	0.01598	7.27338	943.2
33.9687	68.1492	0.46	0.06	-30.00	-20.00	7.373	0.01344	7.27339	848.7
33.9887	68.1492	0.46	0.06	-30.00	-20.00	7.373	0.01090	7.27339	743.0
34.0087	68.1492	0.46	0.06	-30.00	-20.00	7.373	0.00836	7.27339	628.6
34.0287	68.1492	0.46	0.06	-30.00	-20.00	7.373	0.00582	7.27340	516.9
34.0487	68.1492	0.46	0.06	-30.00	-20.00	7.373	0.00328	7.27340	399.8
34.0687	68.1492	0.46	0.06	-30.00	-20.00	7.373	0.00074	7.27340	299.2
34.0887	68.1492	0.46	0.06	-30.00	-20.00	7.373	-0.00179	7.27340	223.0
34.1087	68.1492	0.46	0.06	-30.00	-20.00	7.373	-0.00433	7.27340	155.7
34.1287	68.1492	0.46	0.06	-30.00	-20.00	7.373	-0.00687	7.27339	110.1
34.1487	68.1492	0.46	0.06	-30.00	-20.00	7.373	-0.00941	7.27339	72.0
34.1687	68.1492	0.46	0.06	-30.00	-20.00	7.373	-0.01195	7.27339	49.7
34.1887	68.1492	0.46	0.06	-30.00	-20.00	7.373	-0.01449	7.27338	32.9
34.2087	68.1492	0.46	0.06	-30.00	-20.00	7.373	-0.01703	7.27338	22.1
34.2287	68.1492	0.46	0.06	-30.00	-20.00	7.373	-0.01957	7.27337	13.4
34.2487	68.1492	0.46	0.06	-30.00	-20.00	7.373	-0.02210	7.27336	8.8
34.2687	68.1492	0.46	0.06	-30.00	-20.00	7.373	-0.02464	7.27336	6.6
34.2887	68.1492	0.46	0.06	-30.00	-20.00	7.373	-0.02718	7.27335	4.6
34.3087	68.1492	0.46	0.06	-30.00	-20.00	7.373	-0.02972	7.27334	3.4
34.3287	68.1492	0.46	0.06	-30.00	-20.00	7.373	-0.03226	7.27333	3.3
34.3487	68.1492	0.46	0.06	-30.00	-20.00	7.373	-0.03480	7.27332	2.4
34.3687	68.1492	0.46	0.06	-30.00	-20.00	7.373	-0.03734	7.27330	2.4
34.3887	68.1492	0.46	0.06	-30.00	-20.00	7.373	-0.03988	7.27329	2.1
34.4087	68.1492	0.46	0.06	-30.00	-20.00	7.373	-0.04242	7.27327	2.1
34.4287	68.1492	0.46	0.06	-30.00	-20.00	7.373	-0.04495	7.27326	1.9
34.4487	68.1492	0.46	0.06	-30.00	-20.00	7.373	-0.04749	7.27324	1.9
34.4687	68.1492	0.46	0.06	-30.00	-20.00	7.373	-0.05003	7.27323	1.8
34.4887	68.1492	0.46	0.06	-30.00	-20.00	7.373	-0.05257	7.27321	1.9
34.5087	68.1492	0.46	0.06	-30.00	-20.00	7.373	-0.05511	7.27319	2.0
34.5287	68.1492	0.46	0.06	-30.00	-20.00	7.373	-0.05765	7.27317	1.7
34.5487	68.1492	0.46	0.06	-30.00	-20.00	7.373	-0.06019	7.27315	1.4
34.5687	68.1492	0.46	0.06	-30.00	-20.00	7.373	-0.06273	7.27313	1.4
34.5887	68.1492	0.46	0.06	-30.00	-20.00	7.373	-0.06527	7.27311	1.5
34.6087	68.1492	0.46	0.06	-30.00	-20.00	7.373	-0.06780	7.27308	1.5
34.6287	68.1492	0.46	0.06	-30.00	-20.00	7.373	-0.07034	7.27306	1.4
34.6487	68.1492	0.46	0.06	-30.00	-20.00	7.373	-0.07288	7.27303	1.3
34.6687	68.1492	0.46	0.06	-30.00	-20.00	7.373	-0.07542	7.27301	1.7
34.6887	68.1492	0.46	0.06	-30.00	-20.00	7.373	-0.07796	7.27298	1.1
34.7087	68.1492	0.46	0.06	-30.00	-20.00	7.373	-0.08050	7.27295	1.5
34.7287	68.1492	0.46	0.06	-30.00	-20.00	7.373	-0.08304	7.27292	1.3
34.7487	68.1492	0.46	0.06	-30.00	-20.00	7.373	-0.08558	7.27289	1.2
34.7687	68.1492	0.46	0.06	-30.00	-20.00	7.373	-0.08811	7.27286	1.4
34.7887	68.1492	0.46	0.06	-30.00	-20.00	7.373	-0.09065	7.27283	1.3
34.8087	68.1492	0.46	0.06	-30.00	-20.00	7.373	-0.09319	7.27280	1.2
34.8287	68.1492	0.46	0.06	-30.00	-20.00	7.373	-0.09573	7.27277	1.2
34.8487	68.1492	0.46	0.06	-30.00	-20.00	7.373	-0.09827	7.27273	1.4
34.8687	68.1492	0.46	0.06	-30.00	-20.00	7.373	-0.10081	7.27270	1.1
34.8887	68.1492	0.46	0.06	-30.00	-20.00	7.373	-0.10335	7.27266	1.3
34.6793	67.7018	0.46	0.06	-29.80	-19.87	7.324	-0.10517	7.22475	1.3

File: 1.5deg-2.0deg-rsm-2h30mins_11358-annealed_004_w-scans_w_000-148.dat
# filename: 1.5deg-2.0deg-rsm-2h30mins_11358-annealed_004_w-scans.dat
# reflection: (004)
# type: Projection of 148 omega (rotated)  scans
# x-axis: omega
#
# Omega	2Theta	Phi  	Chi   	X    	Y    	Z    	q_para	q_perp	Intensity
# [deg]	[deg] 	[deg]	[deg] 	[mm] 	[mm] 	[mm] 	[nm-1]	[nm-1]	[counts/s]
32.9568	68.1482	-0.24	0.31	0.00	-23.01	7.396	0.14182	7.27192	1.3
32.9768	68.1482	-0.24	0.31	0.00	-23.01	7.396	0.13928	7.27197	1.3
32.9968	68.1482	-0.24	0.31	0.00	-23.01	7.396	0.13674	7.27202	1.2
33.0168	68.1482	-0.24	0.31	0.00	-23.01	7.396	0.13421	7.27207	1.1
33.0368	68.1482	-0.24	0.31	0.00	-23.01	7.396	0.13167	7.27211	1.4
33.0568	68.1482	-0.24	0.31	0.00	-23.01	7.396	0.12913	7.27216	1.6
33.0768	68.1482	-0.24	0.31	0.00	-23.01	7.396	0.12659	7.27220	1.4
33.0968	68.1482	-0.24	0.31	0.00	-23.01	7.396	0.12405	7.27225	1.6
33.1168	68.1482	-0.24	0.31	0.00	-23.01	7.396	0.12151	7.27229	1.5
33.1368	68.1482	-0.24	0.31	0.00	-23.01	7.396	0.11897	7.27233	1.5
33.1568	68.1482	-0.24	0.31	0.00	-23.01	7.396	0.11644	7.27237	1.4
33.1768	68.1482	-0.24	0.31	0.00	-23.01	7.396	0.11390	7.27241	1.8
33.1968	68.1482	-0.24	0.31	0.00	-23.01	7.396	0.11136	7.27245	1.5
33.2168	68.1482	-0.24	0.31	0.00	-23.01	7.396	0.10882	7.27249	1.4
33.2368	68.1482	-0.24	0.31	0.00	-23.01	7.396	0.10628	7.27253	1.4
33.2568	68.1482	-0.24	0.31	0.00	-23.01	7.396	0.10374	7.27256	1.8
33.2768	68.1482	-0.24	0.31	0.00	-23.01	7.396	0.10120	7.27260	1.6
33.2968	68.1482	-0.24	0.31	0.00	-23.01	7.396	0.09867	7.27264	1.8
33.3168	68.1482	-0.24	0.31	0.00	-23.01	7.396	0.09613	7.27267	1.9
33.3368	68.1482	-0.24	0.31	0.00	-23.01	7.396	0.09359	7.27270	1.8
33.3568	68.1482	-0.24	0.31	0.00	-23.01	7.396	0.09105	7.27273	2.4
33.3768	68.1482	-0.24	0.31	0.00	-23.01	7.396	0.08851	7.27277	2.2
33.3968	68.1482	-0.24	0.31	0.00	-23.01	7.396	0.08597	7.27280	2.0
33.4168	68.1482	-0.24	0.31	0.00	-23.01	7.396	0.08343	7.27283	2.7
33.4368	68.1482	-0.24	0.31	0.00	-23.01	7.396	0.08090	7.27285	3.2
33.4568	68.1482	-0.24	0.31	0.00	-23.01	7.396	0.07836	7.27288	3.2
33.4768	68.1482	-0.24	0.31	0.00	-23.01	7.396	0.07582	7.27291	4.9
33.4968	68.1482	-0.24	0.31	0.00	-23.01	7.396	0.07328	7.27294	5.8
33.5168	68.1482	-0.24	0.31	0.00	-23.01	7.396	0.07074	7.27296	8.7
33.5368	68.1482	-0.24	0.31	0.00	-23.01	7.396	0.06820	7.27298	12.3
33.5568	68.1482	-0.24	0.31	0.00	-23.01	7.396	0.06566	7.27301	17.7
33.5768	68.1482	-0.24	0.31	0.00	-23.01	7.396	0.06312	7.27303	27.4
33.5968	68.1482	-0.24	0.31	0.00	-23.01	7.396	0.06059	7.27305	40.3
33.6168	68.1482	-0.24	0.31	0.00	-23.01	7.396	0.05805	7.27307	57.0
33.6368	68.1482	-0.24	0.31	0.00	-23.01	7.396	0.05551	7.27309	81.6
33.6568	68.1482	-0.24	0.31	0.00	-23.01	7.396	0.05297	7.27311	114.4
33.6768	68.1482	-0.24	0.31	0.00	-23.01	7.396	0.05043	7.27313	155.1
33.6968	68.1482	-0.24	0.31	0.00	-23.01	7.396	0.04789	7.27315	206.8
33.7168	68.1482	-0.24	0.31	0.00	-23.01	7.396	0.04535	7.27316	269.7
33.7368	68.1482	-0.24	0.31	0.00	-23.01	7.396	0.04281	7.27318	348.6
33.7568	68.1482	-0.24	0.31	0.00	-23.01	7.396	0.04027	7.27319	428.6
33.7768	68.1482	-0.24	0.31	0.00	-23.01	7.396	0.03774	7.27321	500.7
33.7968	68.1482	-0.24	0.31	0.00	-23.01	7.396	0.03520	7.27322	581.0
33.8168	68.1482	-0.24	0.31	0.00	-23.01	7.396	0.03266	7.27323	649.6
33.8368	68.1482	-0.24	0.31	0.00	-23.01	7.396	0.03012	7.27324	698.5
33.8568	68.1482	-0.24	0.31	0.00	-23.01	7.396	0.02758	7.27325	746.0
33.8768	68.1482	-0.24	0.31	0.00	-23.01	7.396	0.02504	7.27326	779.2
33.8968	68.1482	-0.24	0.31	0.00	-23.01	7.396	0.02250	7.27327	803.8
33.9168	68.1482	-0.24	0.31	0.00	-23.01	7.396	0.01996	7.27328	847.2
33.9368	68.1482	-0.24	0.31	0.00	-23.01	7.396	0.01743	7.27328	1216.6
33.9568	68.1482	-0.24	0.31	0.00	-23.01	7.396	0.01489	7.27329	5796.9
33.9768	68.1482	-0.24	0.31	0.00	-23.01	7.396	0.01235	7.27329	736.9
33.9968	68.1482	-0.24	0.31	0.00	-23.01	7.396	0.00981	7.27330	480.6
34.0168	68.1482	-0.24	0.31	0.00	-23.01	7.396	0.00727	7.27330	370.1
34.0368	68.1482	-0.24	0.31	0.00	-23.01	7.396	0.00473	7.27330	284.5
34.0568	68.1482	-0.24	0.31	0.00	-23.01	7.396	0.00219	7.27330	214.3
34.0768	68.1482	-0.24	0.31	0.00	-23.01	7.396	-0.00035	7.27330	162.3
34.0968	68.1482	-0.24	0.31	0.00	-23.01	7.396	-0.00289	7.27330	115.3
34.1168	68.1482	-0.24	0.31	0.00	-23.01	7.396	-0.00542	7.27330	83.5
34.1368	68.1482	-0.24	0.31	0.00	-23.01	7.396	-0.00796	7.27330	58.3
34.1568	68.1482	-0.24	0.31	0.00	-23.01	7.396	-0.01050	7.27330	37.8
34.1768	68.1482	-0.24	0.31	0.00	-23.01	7.396	-0.01304	7.27329	26.0
34.1968	68.1482	-0.24	0.31	0.00	-23.01	7.396	-0.01558	7.27329	18.7
34.2168	68.1482	-0.24	0.31	0.00	-23.01	7.396	-0.01812	7.27328	12.6
34.2368	68.1482	-0.24	0.31	0.00	-23.01	7.396	-0.02066	7.27327	8.8
34.2568	68.1482	-0.24	0.31	0.00	-23.01	7.396	-0.02320	7.27327	6.9
34.2768	68.1482	-0.24	0.31	0.00	-23.01	7.396	-0.02574	7.27326	4.4
34.2968	68.1482	-0.24	0.31	0.00	-23.01	7.396	-0.02827	7.27325	3.9
34.3168	68.1482	-0.24	0.31	0.00	-23.01	7.396	-0.03081	7.27324	3.0
34.3368	68.1482	-0.24	0.31	0.00	-23.01	7.396	-0.03335	7.27323	2.5
34.3568	68.1482	-0.24	0.31	0.00	-23.01	7.396	-0.03589	7.27322	2.7
34.3768	68.1482	-0.24	0.31	0.00	-23.01	7.396	-0.03843	7.27320	1.9
34.3968	68.1482	-0.24	0.31	0.00	-23.01	7.396	-0.04097	7.27319	2.2
34.4168	68.1482	-0.24	0.31	0.00	-23.01	7.396	-0.04351	7.27317	2.3
34.4368	68.1482	-0.24	0.31	0.00	-23.01	7.396	-0.04605	7.27316	2.0
34.4568	68.1482	-0.24	0.31	0.00	-23.01	7.396	-0.04858	7.27314	1.9
34.4768	68.1482	-0.24	0.31	0.00	-23.01	7.396	-0.05112	7.27312	1.8
34.4968	68.1482	-0.24	0.31	0.00	-23.01	7.396	-0.05366	7.27311	1.7
34.5168	68.1482	-0.24	0.31	0.00	-23.01	7.396	-0.05620	7.27309	1.7
34.5368	68.1482	-0.24	0.31	0.00	-23.01	7.396	-0.05874	7.27307	2.1
34.5568	68.1482	-0.24	0.31	0.00	-23.01	7.396	-0.06128	7.27305	1.9
34.5768	68.1482	-0.24	0.31	0.00	-23.01	7.396	-0.06382	7.27302	1.4
34.5968	68.1482	-0.24	0.31	0.00	-23.01	7.396	-0.06636	7.27300	1.5
34.6168	68.1482	-0.24	0.31	0.00	-23.01	7.396	-0.06889	7.27298	1.5
34.6368	68.1482	-0.24	0.31	0.00	-23.01	7.396	-0.07143	7.27295	1.1
34.6568	68.1482	-0.24	0.31	0.00	-23.01	7.396	-0.07397	7.27293	1.5
34.6768	68.1482	-0.24	0.31	0.00	-23.01	7.396	-0.07651	7.27290	1.5
34.6968	68.1482	-0.24	0.31	0.00	-23.01	7.396	-0.07905	7.27287	1.3
34.7168	68.1482	-0.24	0.31	0.00	-23.01	7.396	-0.08159	7.27285	1.4
34.7368	68.1482	-0.24	0.31	0.00	-23.01	7.396	-0.08413	7.27282	1.6
34.7568	68.1482	-0.24	0.31	0.00	-23.01	7.396	-0.08667	7.27279	1.4
34.7768	68.1482	-0.24	0.31	0.00	-23.01	7.396	-0.08920	7.27276	1.2
34.7968	68.1482	-0.24	0.31	0.00	-23.01	7.396	-0.09174	7.27273	1.3
34.8168	68.1482	-0.24	0.31	0.00	-23.01	7.396	-0.09428	7.27269	1.4
34.8368	68.1482	-0.24	0.31	0.00	-23.01	7.396	-0.09682	7.27266	1.2
34.8568	68.1482	-0.24	0.31	0.00	-23.01	7.396	-0.09936	7.27263	1.4
34.8768	68.1482	-0.24	0.31	0.00	-23.01	7.396	-0.10190	7.27259	1.2
34.8968	68.1482	-0.24	0.31	0.00	-23.01	7.396	-0.10444	7.27255	1.2
34.9168	68.1482	-0.24	0.31	0.00	-23.01	7.396	-0.10698	7.27252	1.1
34.9368	68.1482	-0.24	0.31	0.00	-23.01	7.396	-0.10951	7.27248	1.1
34.7271	67.7008	-0.24	0.31	0.00	-22.86	7.346	-0.11130	7.22457	1.2