Folder: Thesis_XRD/Data/113xx/Projected_0-200 (part 5)

File: 2.0deg-2.0deg-rsm-3h10mins_11354-as-grown_224_w-scans_w_000-198.dat
# filename: 2.0deg-2.0deg-rsm-3h10mins_11354-as-grown_224_w-scans.dat
# reflection: (004)
# type: Projection of 198 omega (rotated)  scans
# x-axis: omega
#
# Omega	2Theta	Phi  	Chi   	X    	Y    	Z    	q_para	q_perp	Intensity
# [deg]	[deg] 	[deg]	[deg] 	[mm] 	[mm] 	[mm] 	[nm-1]	[nm-1]	[counts/s]
6.8766	87.0520	1.74	0.08	10.00	20.00	7.278	5.33657	7.17278	1.3
6.8966	87.0520	1.74	0.08	10.00	20.00	7.278	5.33407	7.17464	1.3
6.9166	87.0520	1.74	0.08	10.00	20.00	7.278	5.33157	7.17650	1.2
6.9366	87.0520	1.74	0.08	10.00	20.00	7.278	5.32906	7.17836	1.4
6.9566	87.0520	1.74	0.08	10.00	20.00	7.278	5.32655	7.18022	1.6
6.9766	87.0520	1.74	0.08	10.00	20.00	7.278	5.32405	7.18208	1.4
6.9966	87.0520	1.74	0.08	10.00	20.00	7.278	5.32154	7.18394	1.5
7.0166	87.0520	1.74	0.08	10.00	20.00	7.278	5.31903	7.18579	1.3
7.0366	87.0520	1.74	0.08	10.00	20.00	7.278	5.31652	7.18765	1.3
7.0566	87.0520	1.74	0.08	10.00	20.00	7.278	5.31401	7.18951	1.5
7.0766	87.0520	1.74	0.08	10.00	20.00	7.278	5.31150	7.19136	1.6
7.0966	87.0520	1.74	0.08	10.00	20.00	7.278	5.30899	7.19321	1.7
7.1166	87.0520	1.74	0.08	10.00	20.00	7.278	5.30648	7.19507	1.8
7.1366	87.0520	1.74	0.08	10.00	20.00	7.278	5.30397	7.19692	1.5
7.1566	87.0520	1.74	0.08	10.00	20.00	7.278	5.30146	7.19877	1.8
7.1766	87.0520	1.74	0.08	10.00	20.00	7.278	5.29895	7.20062	1.6
7.1966	87.0520	1.74	0.08	10.00	20.00	7.278	5.29643	7.20247	1.6
7.2166	87.0520	1.74	0.08	10.00	20.00	7.278	5.29392	7.20432	1.8
7.2366	87.0520	1.74	0.08	10.00	20.00	7.278	5.29140	7.20616	1.9
7.2566	87.0520	1.74	0.08	10.00	20.00	7.278	5.28889	7.20801	1.8
7.2766	87.0520	1.74	0.08	10.00	20.00	7.278	5.28637	7.20986	2.1
7.2966	87.0520	1.74	0.08	10.00	20.00	7.278	5.28385	7.21170	2.1
7.3166	87.0520	1.74	0.08	10.00	20.00	7.278	5.28133	7.21355	2.4
7.3366	87.0520	1.74	0.08	10.00	20.00	7.278	5.27882	7.21539	2.0
7.3566	87.0520	1.74	0.08	10.00	20.00	7.278	5.27630	7.21723	2.2
7.3766	87.0520	1.74	0.08	10.00	20.00	7.278	5.27378	7.21907	2.6
7.3966	87.0520	1.74	0.08	10.00	20.00	7.278	5.27126	7.22091	2.3
7.4166	87.0520	1.74	0.08	10.00	20.00	7.278	5.26874	7.22275	2.8
7.4366	87.0520	1.74	0.08	10.00	20.00	7.278	5.26622	7.22459	2.7
7.4566	87.0520	1.74	0.08	10.00	20.00	7.278	5.26369	7.22643	3.0
7.4766	87.0520	1.74	0.08	10.00	20.00	7.278	5.26117	7.22827	3.0
7.4966	87.0520	1.74	0.08	10.00	20.00	7.278	5.25865	7.23010	3.6
7.5166	87.0520	1.74	0.08	10.00	20.00	7.278	5.25612	7.23194	4.5
7.5366	87.0520	1.74	0.08	10.00	20.00	7.278	5.25360	7.23377	5.7
7.5566	87.0520	1.74	0.08	10.00	20.00	7.278	5.25107	7.23560	8.2
7.5766	87.0520	1.74	0.08	10.00	20.00	7.278	5.24855	7.23744	10.6
7.5966	87.0520	1.74	0.08	10.00	20.00	7.278	5.24602	7.23927	15.8
7.6166	87.0520	1.74	0.08	10.00	20.00	7.278	5.24349	7.24110	22.5
7.6366	87.0520	1.74	0.08	10.00	20.00	7.278	5.24096	7.24293	32.4
7.6566	87.0520	1.74	0.08	10.00	20.00	7.278	5.23844	7.24476	50.0
7.6766	87.0520	1.74	0.08	10.00	20.00	7.278	5.23591	7.24659	71.6
7.6966	87.0520	1.74	0.08	10.00	20.00	7.278	5.23338	7.24841	99.3
7.7166	87.0520	1.74	0.08	10.00	20.00	7.278	5.23085	7.25024	135.9
7.7366	87.0520	1.74	0.08	10.00	20.00	7.278	5.22832	7.25207	179.5
7.7566	87.0520	1.74	0.08	10.00	20.00	7.278	5.22578	7.25389	238.5
7.7766	87.0520	1.74	0.08	10.00	20.00	7.278	5.22325	7.25571	303.3
7.7966	87.0520	1.74	0.08	10.00	20.00	7.278	5.22072	7.25754	380.1
7.8166	87.0520	1.74	0.08	10.00	20.00	7.278	5.21818	7.25936	462.2
7.8366	87.0520	1.74	0.08	10.00	20.00	7.278	5.21565	7.26118	541.8
7.8566	87.0520	1.74	0.08	10.00	20.00	7.278	5.21312	7.26300	635.1
7.8766	87.0520	1.74	0.08	10.00	20.00	7.278	5.21058	7.26482	1192.3
7.8966	87.0520	1.74	0.08	10.00	20.00	7.278	5.20804	7.26664	1443.2
7.9166	87.0520	1.74	0.08	10.00	20.00	7.278	5.20551	7.26845	815.5
7.9366	87.0520	1.74	0.08	10.00	20.00	7.278	5.20297	7.27027	701.4
7.9566	87.0520	1.74	0.08	10.00	20.00	7.278	5.20043	7.27209	619.5
7.9766	87.0520	1.74	0.08	10.00	20.00	7.278	5.19789	7.27390	536.1
7.9966	87.0520	1.74	0.08	10.00	20.00	7.278	5.19535	7.27572	455.6
8.0166	87.0520	1.74	0.08	10.00	20.00	7.278	5.19281	7.27753	370.0
8.0366	87.0520	1.74	0.08	10.00	20.00	7.278	5.19027	7.27934	298.5
8.0566	87.0520	1.74	0.08	10.00	20.00	7.278	5.18773	7.28115	231.1
8.0766	87.0520	1.74	0.08	10.00	20.00	7.278	5.18519	7.28296	176.6
8.0966	87.0520	1.74	0.08	10.00	20.00	7.278	5.18265	7.28477	131.0
8.1166	87.0520	1.74	0.08	10.00	20.00	7.278	5.18010	7.28658	95.4
8.1366	87.0520	1.74	0.08	10.00	20.00	7.278	5.17756	7.28839	67.0
8.1566	87.0520	1.74	0.08	10.00	20.00	7.278	5.17502	7.29020	45.7
8.1766	87.0520	1.74	0.08	10.00	20.00	7.278	5.17247	7.29200	31.1
8.1966	87.0520	1.74	0.08	10.00	20.00	7.278	5.16992	7.29381	22.8
8.2166	87.0520	1.74	0.08	10.00	20.00	7.278	5.16738	7.29561	15.2
8.2366	87.0520	1.74	0.08	10.00	20.00	7.278	5.16483	7.29741	10.9
8.2566	87.0520	1.74	0.08	10.00	20.00	7.278	5.16228	7.29922	8.4
8.2766	87.0520	1.74	0.08	10.00	20.00	7.278	5.15974	7.30102	6.3
8.2966	87.0520	1.74	0.08	10.00	20.00	7.278	5.15719	7.30282	5.1
8.3166	87.0520	1.74	0.08	10.00	20.00	7.278	5.15464	7.30462	4.6
8.3366	87.0520	1.74	0.08	10.00	20.00	7.278	5.15209	7.30642	3.8
8.3566	87.0520	1.74	0.08	10.00	20.00	7.278	5.14954	7.30822	3.5
8.3766	87.0520	1.74	0.08	10.00	20.00	7.278	5.14698	7.31001	3.0
8.3966	87.0520	1.74	0.08	10.00	20.00	7.278	5.14443	7.31181	3.0
8.4166	87.0520	1.74	0.08	10.00	20.00	7.278	5.14188	7.31360	2.8
8.4366	87.0520	1.74	0.08	10.00	20.00	7.278	5.13933	7.31540	2.6
8.4566	87.0520	1.74	0.08	10.00	20.00	7.278	5.13677	7.31719	2.4
8.4766	87.0520	1.74	0.08	10.00	20.00	7.278	5.13422	7.31898	2.5
8.4966	87.0520	1.74	0.08	10.00	20.00	7.278	5.13166	7.32078	2.5
8.5166	87.0520	1.74	0.08	10.00	20.00	7.278	5.12911	7.32257	2.3
8.5366	87.0520	1.74	0.08	10.00	20.00	7.278	5.12655	7.32436	2.3
8.5566	87.0520	1.74	0.08	10.00	20.00	7.278	5.12399	7.32615	2.2
8.5766	87.0520	1.74	0.08	10.00	20.00	7.278	5.12144	7.32793	2.4
8.5966	87.0520	1.74	0.08	10.00	20.00	7.278	5.11888	7.32972	2.0
8.6166	87.0520	1.74	0.08	10.00	20.00	7.278	5.11632	7.33151	2.0
8.6366	87.0520	1.74	0.08	10.00	20.00	7.278	5.11376	7.33329	2.3
8.6566	87.0520	1.74	0.08	10.00	20.00	7.278	5.11120	7.33508	2.1
8.6766	87.0520	1.74	0.08	10.00	20.00	7.278	5.10864	7.33686	2.0
8.6966	87.0520	1.74	0.08	10.00	20.00	7.278	5.10608	7.33865	2.0
8.7166	87.0520	1.74	0.08	10.00	20.00	7.278	5.10352	7.34043	2.0
8.7366	87.0520	1.74	0.08	10.00	20.00	7.278	5.10095	7.34221	2.0
8.7566	87.0520	1.74	0.08	10.00	20.00	7.278	5.09839	7.34399	1.7
8.7766	87.0520	1.74	0.08	10.00	20.00	7.278	5.09583	7.34577	1.6
8.7966	87.0520	1.74	0.08	10.00	20.00	7.278	5.09326	7.34755	1.7
8.8166	87.0520	1.74	0.08	10.00	20.00	7.278	5.09070	7.34932	1.7
8.8366	87.0520	1.74	0.08	10.00	20.00	7.278	5.08813	7.35110	1.7
8.8566	87.0520	1.74	0.08	10.00	20.00	7.278	5.08557	7.35288	1.6
8.8369	86.6245	1.73	0.08	9.95	19.90	7.241	5.05793	7.31836	1.6

File: 2.0deg-2.0deg-rsm-3h10mins_11355-annealed_224_w-scans_w_000-198.dat
# filename: 2.0deg-2.0deg-rsm-3h10mins_11355-annealed_224_w-scans.dat
# reflection: (004)
# type: Projection of 198 omega (rotated)  scans
# x-axis: omega
#
# Omega	2Theta	Phi  	Chi   	X    	Y    	Z    	q_para	q_perp	Intensity
# [deg]	[deg] 	[deg]	[deg] 	[mm] 	[mm] 	[mm] 	[nm-1]	[nm-1]	[counts/s]
7.6729	86.9798	-0.70	0.35	0.00	15.50	7.376	5.22834	7.24474	1.1
7.6929	86.9798	-0.70	0.35	0.00	15.50	7.376	5.22581	7.24656	1.1
7.7129	86.9798	-0.70	0.35	0.00	15.50	7.376	5.22328	7.24838	1.0
7.7329	86.9798	-0.70	0.35	0.00	15.50	7.376	5.22075	7.25021	1.2
7.7529	86.9798	-0.70	0.35	0.00	15.50	7.376	5.21822	7.25203	1.0
7.7729	86.9798	-0.70	0.35	0.00	15.50	7.376	5.21568	7.25385	1.2
7.7929	86.9798	-0.70	0.35	0.00	15.50	7.376	5.21315	7.25567	1.1
7.8129	86.9798	-0.70	0.35	0.00	15.50	7.376	5.21062	7.25749	1.3
7.8329	86.9798	-0.70	0.35	0.00	15.50	7.376	5.20809	7.25931	1.4
7.8529	86.9798	-0.70	0.35	0.00	15.50	7.376	5.20555	7.26113	1.1
7.8729	86.9798	-0.70	0.35	0.00	15.50	7.376	5.20302	7.26294	1.5
7.8929	86.9798	-0.70	0.35	0.00	15.50	7.376	5.20048	7.26476	1.4
7.9129	86.9798	-0.70	0.35	0.00	15.50	7.376	5.19794	7.26657	1.2
7.9329	86.9798	-0.70	0.35	0.00	15.50	7.376	5.19541	7.26839	1.2
7.9529	86.9798	-0.70	0.35	0.00	15.50	7.376	5.19287	7.27020	1.3
7.9729	86.9798	-0.70	0.35	0.00	15.50	7.376	5.19033	7.27201	1.1
7.9929	86.9798	-0.70	0.35	0.00	15.50	7.376	5.18779	7.27382	1.5
8.0129	86.9798	-0.70	0.35	0.00	15.50	7.376	5.18525	7.27563	1.7
8.0329	86.9798	-0.70	0.35	0.00	15.50	7.376	5.18271	7.27744	1.8
8.0529	86.9798	-0.70	0.35	0.00	15.50	7.376	5.18017	7.27925	1.7
8.0729	86.9798	-0.70	0.35	0.00	15.50	7.376	5.17763	7.28106	1.6
8.0929	86.9798	-0.70	0.35	0.00	15.50	7.376	5.17509	7.28287	2.0
8.1129	86.9798	-0.70	0.35	0.00	15.50	7.376	5.17255	7.28467	2.0
8.1329	86.9798	-0.70	0.35	0.00	15.50	7.376	5.17000	7.28648	2.4
8.1529	86.9798	-0.70	0.35	0.00	15.50	7.376	5.16746	7.28828	2.3
8.1729	86.9798	-0.70	0.35	0.00	15.50	7.376	5.16492	7.29009	2.5
8.1929	86.9798	-0.70	0.35	0.00	15.50	7.376	5.16237	7.29189	2.7
8.2129	86.9798	-0.70	0.35	0.00	15.50	7.376	5.15983	7.29369	2.7
8.2329	86.9798	-0.70	0.35	0.00	15.50	7.376	5.15728	7.29549	3.3
8.2529	86.9798	-0.70	0.35	0.00	15.50	7.376	5.15473	7.29729	3.9
8.2729	86.9798	-0.70	0.35	0.00	15.50	7.376	5.15218	7.29909	4.3
8.2929	86.9798	-0.70	0.35	0.00	15.50	7.376	5.14964	7.30089	4.9
8.3129	86.9798	-0.70	0.35	0.00	15.50	7.376	5.14709	7.30268	6.3
8.3329	86.9798	-0.70	0.35	0.00	15.50	7.376	5.14454	7.30448	8.0
8.3529	86.9798	-0.70	0.35	0.00	15.50	7.376	5.14199	7.30628	10.6
8.3729	86.9798	-0.70	0.35	0.00	15.50	7.376	5.13944	7.30807	15.6
8.3929	86.9798	-0.70	0.35	0.00	15.50	7.376	5.13689	7.30986	24.5
8.4129	86.9798	-0.70	0.35	0.00	15.50	7.376	5.13433	7.31166	36.6
8.4329	86.9798	-0.70	0.35	0.00	15.50	7.376	5.13178	7.31345	53.9
8.4529	86.9798	-0.70	0.35	0.00	15.50	7.376	5.12923	7.31524	79.1
8.4729	86.9798	-0.70	0.35	0.00	15.50	7.376	5.12668	7.31703	115.7
8.4929	86.9798	-0.70	0.35	0.00	15.50	7.376	5.12412	7.31882	159.5
8.5129	86.9798	-0.70	0.35	0.00	15.50	7.376	5.12157	7.32061	213.8
8.5329	86.9798	-0.70	0.35	0.00	15.50	7.376	5.11901	7.32239	276.4
8.5529	86.9798	-0.70	0.35	0.00	15.50	7.376	5.11645	7.32418	347.3
8.5729	86.9798	-0.70	0.35	0.00	15.50	7.376	5.11390	7.32596	421.5
8.5929	86.9798	-0.70	0.35	0.00	15.50	7.376	5.11134	7.32775	498.9
8.6129	86.9798	-0.70	0.35	0.00	15.50	7.376	5.10878	7.32953	579.5
8.6329	86.9798	-0.70	0.35	0.00	15.50	7.376	5.10622	7.33132	734.2
8.6529	86.9798	-0.70	0.35	0.00	15.50	7.376	5.10366	7.33310	1156.9
8.6729	86.9798	-0.70	0.35	0.00	15.50	7.376	5.10110	7.33488	1285.0
8.6929	86.9798	-0.70	0.35	0.00	15.50	7.376	5.09854	7.33666	1041.9
8.7129	86.9798	-0.70	0.35	0.00	15.50	7.376	5.09598	7.33844	662.6
8.7329	86.9798	-0.70	0.35	0.00	15.50	7.376	5.09342	7.34022	511.2
8.7529	86.9798	-0.70	0.35	0.00	15.50	7.376	5.09086	7.34200	420.8
8.7729	86.9798	-0.70	0.35	0.00	15.50	7.376	5.08829	7.34377	343.6
8.7929	86.9798	-0.70	0.35	0.00	15.50	7.376	5.08573	7.34555	269.9
8.8129	86.9798	-0.70	0.35	0.00	15.50	7.376	5.08316	7.34732	208.2
8.8329	86.9798	-0.70	0.35	0.00	15.50	7.376	5.08060	7.34910	153.2
8.8529	86.9798	-0.70	0.35	0.00	15.50	7.376	5.07803	7.35087	109.9
8.8729	86.9798	-0.70	0.35	0.00	15.50	7.376	5.07547	7.35264	76.9
8.8929	86.9798	-0.70	0.35	0.00	15.50	7.376	5.07290	7.35441	55.4
8.9129	86.9798	-0.70	0.35	0.00	15.50	7.376	5.07033	7.35618	39.3
8.9329	86.9798	-0.70	0.35	0.00	15.50	7.376	5.06777	7.35795	26.1
8.9529	86.9798	-0.70	0.35	0.00	15.50	7.376	5.06520	7.35972	18.1
8.9729	86.9798	-0.70	0.35	0.00	15.50	7.376	5.06263	7.36149	12.3
8.9929	86.9798	-0.70	0.35	0.00	15.50	7.376	5.06006	7.36325	9.0
9.0129	86.9798	-0.70	0.35	0.00	15.50	7.376	5.05749	7.36502	6.4
9.0329	86.9798	-0.70	0.35	0.00	15.50	7.376	5.05492	7.36679	5.2
9.0529	86.9798	-0.70	0.35	0.00	15.50	7.376	5.05234	7.36855	4.7
9.0729	86.9798	-0.70	0.35	0.00	15.50	7.376	5.04977	7.37031	4.8
9.0929	86.9798	-0.70	0.35	0.00	15.50	7.376	5.04720	7.37208	3.7
9.1129	86.9798	-0.70	0.35	0.00	15.50	7.376	5.04463	7.37384	3.0
9.1329	86.9798	-0.70	0.35	0.00	15.50	7.376	5.04205	7.37560	2.3
9.1529	86.9798	-0.70	0.35	0.00	15.50	7.376	5.03948	7.37736	2.2
9.1729	86.9798	-0.70	0.35	0.00	15.50	7.376	5.03690	7.37912	2.0
9.1929	86.9798	-0.70	0.35	0.00	15.50	7.376	5.03432	7.38087	2.0
9.2129	86.9798	-0.70	0.35	0.00	15.50	7.376	5.03175	7.38263	1.8
9.2329	86.9798	-0.70	0.35	0.00	15.50	7.376	5.02917	7.38439	1.9
9.2529	86.9798	-0.70	0.35	0.00	15.50	7.376	5.02659	7.38614	1.9
9.2729	86.9798	-0.70	0.35	0.00	15.50	7.376	5.02401	7.38790	1.8
9.2929	86.9798	-0.70	0.35	0.00	15.50	7.376	5.02143	7.38965	1.8
9.3129	86.9798	-0.70	0.35	0.00	15.50	7.376	5.01885	7.39140	1.5
9.3329	86.9798	-0.70	0.35	0.00	15.50	7.376	5.01627	7.39315	1.5
9.3529	86.9798	-0.70	0.35	0.00	15.50	7.376	5.01369	7.39490	1.5
9.3729	86.9798	-0.70	0.35	0.00	15.50	7.376	5.01111	7.39665	1.5
9.3929	86.9798	-0.70	0.35	0.00	15.50	7.376	5.00853	7.39840	1.5
9.4129	86.9798	-0.70	0.35	0.00	15.50	7.376	5.00595	7.40015	1.5
9.4329	86.9798	-0.70	0.35	0.00	15.50	7.376	5.00336	7.40190	1.4
9.4529	86.9798	-0.70	0.35	0.00	15.50	7.376	5.00078	7.40364	1.5
9.4729	86.9798	-0.70	0.35	0.00	15.50	7.376	4.99819	7.40539	1.5
9.4929	86.9798	-0.70	0.35	0.00	15.50	7.376	4.99561	7.40713	1.5
9.5129	86.9798	-0.70	0.35	0.00	15.50	7.376	4.99302	7.40887	1.3
9.5329	86.9798	-0.70	0.35	0.00	15.50	7.376	4.99044	7.41062	1.4
9.5529	86.9798	-0.70	0.35	0.00	15.50	7.376	4.98785	7.41236	1.3
9.5729	86.9798	-0.70	0.35	0.00	15.50	7.376	4.98526	7.41410	1.3
9.5929	86.9798	-0.70	0.35	0.00	15.50	7.376	4.98267	7.41584	1.3
9.6129	86.9798	-0.70	0.35	0.00	15.50	7.376	4.98008	7.41758	1.3
9.6329	86.9798	-0.70	0.35	0.00	15.50	7.376	4.97750	7.41932	1.3
9.6529	86.9798	-0.70	0.35	0.00	15.50	7.376	4.97491	7.42105	1.2
9.6292	86.5527	-0.70	0.35	0.00	15.42	7.339	4.94780	7.38616	1.4

File: 2.0deg-2.0deg-rsm-3h10mins_11355-as-grown_224_w-scans_w_000-198.dat
# filename: 2.0deg-2.0deg-rsm-3h10mins_11355-as-grown_224_w-scans.dat
# reflection: (004)
# type: Projection of 198 omega (rotated)  scans
# x-axis: omega
#
# Omega	2Theta	Phi  	Chi   	X    	Y    	Z    	q_para	q_perp	Intensity
# [deg]	[deg] 	[deg]	[deg] 	[mm] 	[mm] 	[mm] 	[nm-1]	[nm-1]	[counts/s]
7.0979	87.0526	0.46	0.10	-30.00	-20.00	7.373	5.30890	7.19335	1.3
7.1179	87.0526	0.46	0.10	-30.00	-20.00	7.373	5.30639	7.19520	1.4
7.1379	87.0526	0.46	0.10	-30.00	-20.00	7.373	5.30387	7.19705	1.3
7.1579	87.0526	0.46	0.10	-30.00	-20.00	7.373	5.30136	7.19890	1.5
7.1779	87.0526	0.46	0.10	-30.00	-20.00	7.373	5.29885	7.20075	1.4
7.1979	87.0526	0.46	0.10	-30.00	-20.00	7.373	5.29633	7.20260	1.3
7.2179	87.0526	0.46	0.10	-30.00	-20.00	7.373	5.29382	7.20445	1.3
7.2379	87.0526	0.46	0.10	-30.00	-20.00	7.373	5.29131	7.20630	1.5
7.2579	87.0526	0.46	0.10	-30.00	-20.00	7.373	5.28879	7.20814	1.5
7.2779	87.0526	0.46	0.10	-30.00	-20.00	7.373	5.28627	7.20999	1.9
7.2979	87.0526	0.46	0.10	-30.00	-20.00	7.373	5.28376	7.21183	1.4
7.3179	87.0526	0.46	0.10	-30.00	-20.00	7.373	5.28124	7.21368	1.5
7.3379	87.0526	0.46	0.10	-30.00	-20.00	7.373	5.27872	7.21552	1.6
7.3579	87.0526	0.46	0.10	-30.00	-20.00	7.373	5.27620	7.21736	1.7
7.3779	87.0526	0.46	0.10	-30.00	-20.00	7.373	5.27368	7.21920	1.5
7.3979	87.0526	0.46	0.10	-30.00	-20.00	7.373	5.27116	7.22104	1.8
7.4179	87.0526	0.46	0.10	-30.00	-20.00	7.373	5.26864	7.22288	1.6
7.4379	87.0526	0.46	0.10	-30.00	-20.00	7.373	5.26612	7.22472	1.8
7.4579	87.0526	0.46	0.10	-30.00	-20.00	7.373	5.26360	7.22656	1.7
7.4779	87.0526	0.46	0.10	-30.00	-20.00	7.373	5.26107	7.22840	2.0
7.4979	87.0526	0.46	0.10	-30.00	-20.00	7.373	5.25855	7.23023	2.0
7.5179	87.0526	0.46	0.10	-30.00	-20.00	7.373	5.25603	7.23207	1.6
7.5379	87.0526	0.46	0.10	-30.00	-20.00	7.373	5.25350	7.23390	2.1
7.5579	87.0526	0.46	0.10	-30.00	-20.00	7.373	5.25098	7.23574	2.2
7.5779	87.0526	0.46	0.10	-30.00	-20.00	7.373	5.24845	7.23757	2.0
7.5979	87.0526	0.46	0.10	-30.00	-20.00	7.373	5.24592	7.23940	2.3
7.6179	87.0526	0.46	0.10	-30.00	-20.00	7.373	5.24340	7.24123	2.2
7.6379	87.0526	0.46	0.10	-30.00	-20.00	7.373	5.24087	7.24306	2.2
7.6579	87.0526	0.46	0.10	-30.00	-20.00	7.373	5.23834	7.24489	2.7
7.6779	87.0526	0.46	0.10	-30.00	-20.00	7.373	5.23581	7.24672	2.9
7.6979	87.0526	0.46	0.10	-30.00	-20.00	7.373	5.23328	7.24855	3.0
7.7179	87.0526	0.46	0.10	-30.00	-20.00	7.373	5.23075	7.25037	3.5
7.7379	87.0526	0.46	0.10	-30.00	-20.00	7.373	5.22822	7.25220	3.7
7.7579	87.0526	0.46	0.10	-30.00	-20.00	7.373	5.22569	7.25402	5.1
7.7779	87.0526	0.46	0.10	-30.00	-20.00	7.373	5.22315	7.25585	6.3
7.7979	87.0526	0.46	0.10	-30.00	-20.00	7.373	5.22062	7.25767	10.0
7.8179	87.0526	0.46	0.10	-30.00	-20.00	7.373	5.21809	7.25949	14.6
7.8379	87.0526	0.46	0.10	-30.00	-20.00	7.373	5.21555	7.26131	22.8
7.8579	87.0526	0.46	0.10	-30.00	-20.00	7.373	5.21302	7.26313	33.3
7.8779	87.0526	0.46	0.10	-30.00	-20.00	7.373	5.21048	7.26495	52.1
7.8979	87.0526	0.46	0.10	-30.00	-20.00	7.373	5.20795	7.26677	76.4
7.9179	87.0526	0.46	0.10	-30.00	-20.00	7.373	5.20541	7.26859	111.7
7.9379	87.0526	0.46	0.10	-30.00	-20.00	7.373	5.20287	7.27040	163.2
7.9579	87.0526	0.46	0.10	-30.00	-20.00	7.373	5.20033	7.27222	221.5
7.9779	87.0526	0.46	0.10	-30.00	-20.00	7.373	5.19779	7.27403	295.2
7.9979	87.0526	0.46	0.10	-30.00	-20.00	7.373	5.19525	7.27585	381.4
8.0179	87.0526	0.46	0.10	-30.00	-20.00	7.373	5.19271	7.27766	465.7
8.0379	87.0526	0.46	0.10	-30.00	-20.00	7.373	5.19017	7.27947	554.9
8.0579	87.0526	0.46	0.10	-30.00	-20.00	7.373	5.18763	7.28128	650.8
8.0779	87.0526	0.46	0.10	-30.00	-20.00	7.373	5.18509	7.28309	806.1
8.0979	87.0526	0.46	0.10	-30.00	-20.00	7.373	5.18255	7.28490	2583.0
8.1179	87.0526	0.46	0.10	-30.00	-20.00	7.373	5.18001	7.28671	906.6
8.1379	87.0526	0.46	0.10	-30.00	-20.00	7.373	5.17746	7.28852	737.8
8.1579	87.0526	0.46	0.10	-30.00	-20.00	7.373	5.17492	7.29033	640.1
8.1779	87.0526	0.46	0.10	-30.00	-20.00	7.373	5.17237	7.29213	544.7
8.1979	87.0526	0.46	0.10	-30.00	-20.00	7.373	5.16983	7.29394	459.9
8.2179	87.0526	0.46	0.10	-30.00	-20.00	7.373	5.16728	7.29574	368.6
8.2379	87.0526	0.46	0.10	-30.00	-20.00	7.373	5.16473	7.29754	284.1
8.2579	87.0526	0.46	0.10	-30.00	-20.00	7.373	5.16218	7.29935	215.0
8.2779	87.0526	0.46	0.10	-30.00	-20.00	7.373	5.15964	7.30115	160.5
8.2979	87.0526	0.46	0.10	-30.00	-20.00	7.373	5.15709	7.30295	115.7
8.3179	87.0526	0.46	0.10	-30.00	-20.00	7.373	5.15454	7.30475	81.2
8.3379	87.0526	0.46	0.10	-30.00	-20.00	7.373	5.15199	7.30655	55.9
8.3579	87.0526	0.46	0.10	-30.00	-20.00	7.373	5.14944	7.30835	38.3
8.3779	87.0526	0.46	0.10	-30.00	-20.00	7.373	5.14689	7.31014	26.8
8.3979	87.0526	0.46	0.10	-30.00	-20.00	7.373	5.14433	7.31194	17.4
8.4179	87.0526	0.46	0.10	-30.00	-20.00	7.373	5.14178	7.31373	12.3
8.4379	87.0526	0.46	0.10	-30.00	-20.00	7.373	5.13923	7.31553	8.1
8.4579	87.0526	0.46	0.10	-30.00	-20.00	7.373	5.13667	7.31732	6.1
8.4779	87.0526	0.46	0.10	-30.00	-20.00	7.373	5.13412	7.31911	5.1
8.4979	87.0526	0.46	0.10	-30.00	-20.00	7.373	5.13156	7.32091	4.0
8.5179	87.0526	0.46	0.10	-30.00	-20.00	7.373	5.12901	7.32270	3.6
8.5379	87.0526	0.46	0.10	-30.00	-20.00	7.373	5.12645	7.32449	3.1
8.5579	87.0526	0.46	0.10	-30.00	-20.00	7.373	5.12389	7.32628	3.1
8.5779	87.0526	0.46	0.10	-30.00	-20.00	7.373	5.12134	7.32806	2.6
8.5979	87.0526	0.46	0.10	-30.00	-20.00	7.373	5.11878	7.32985	2.7
8.6179	87.0526	0.46	0.10	-30.00	-20.00	7.373	5.11622	7.33164	2.5
8.6379	87.0526	0.46	0.10	-30.00	-20.00	7.373	5.11366	7.33342	2.5
8.6579	87.0526	0.46	0.10	-30.00	-20.00	7.373	5.11110	7.33521	2.3
8.6779	87.0526	0.46	0.10	-30.00	-20.00	7.373	5.10854	7.33699	2.3
8.6979	87.0526	0.46	0.10	-30.00	-20.00	7.373	5.10598	7.33877	2.3
8.7179	87.0526	0.46	0.10	-30.00	-20.00	7.373	5.10342	7.34056	2.3
8.7379	87.0526	0.46	0.10	-30.00	-20.00	7.373	5.10085	7.34234	2.2
8.7579	87.0526	0.46	0.10	-30.00	-20.00	7.373	5.09829	7.34412	2.3
8.7779	87.0526	0.46	0.10	-30.00	-20.00	7.373	5.09573	7.34590	2.0
8.7979	87.0526	0.46	0.10	-30.00	-20.00	7.373	5.09316	7.34767	2.1
8.8179	87.0526	0.46	0.10	-30.00	-20.00	7.373	5.09060	7.34945	2.1
8.8379	87.0526	0.46	0.10	-30.00	-20.00	7.373	5.08803	7.35123	1.8
8.8579	87.0526	0.46	0.10	-30.00	-20.00	7.373	5.08546	7.35300	2.2
8.8779	87.0526	0.46	0.10	-30.00	-20.00	7.373	5.08290	7.35478	2.0
8.8979	87.0526	0.46	0.10	-30.00	-20.00	7.373	5.08033	7.35655	2.1
8.9179	87.0526	0.46	0.10	-30.00	-20.00	7.373	5.07776	7.35833	1.8
8.9379	87.0526	0.46	0.10	-30.00	-20.00	7.373	5.07519	7.36010	2.0
8.9579	87.0526	0.46	0.10	-30.00	-20.00	7.373	5.07262	7.36187	1.8
8.9779	87.0526	0.46	0.10	-30.00	-20.00	7.373	5.07005	7.36364	1.9
8.9979	87.0526	0.46	0.10	-30.00	-20.00	7.373	5.06748	7.36541	1.6
9.0179	87.0526	0.46	0.10	-30.00	-20.00	7.373	5.06491	7.36718	1.6
9.0379	87.0526	0.46	0.10	-30.00	-20.00	7.373	5.06234	7.36894	1.8
9.0579	87.0526	0.46	0.10	-30.00	-20.00	7.373	5.05977	7.37071	1.6
9.0779	87.0526	0.46	0.10	-30.00	-20.00	7.373	5.05719	7.37248	1.4
9.0571	86.6251	0.46	0.10	-29.85	-19.90	7.336	5.02970	7.33785	1.6