Folder: Thesis_XRD/Data/113xx/Projected_0-200 (part 4)

File: 2.0deg-2.0deg-rsm-3h10mins_11352-annealed_224_w-scans_w_000-198.dat
# filename: 2.0deg-2.0deg-rsm-3h10mins_11352-annealed_224_w-scans.dat
# reflection: (004)
# type: Projection of 198 omega (rotated)  scans
# x-axis: omega
#
# Omega	2Theta	Phi  	Chi   	X    	Y    	Z    	q_para	q_perp	Intensity
# [deg]	[deg] 	[deg]	[deg] 	[mm] 	[mm] 	[mm] 	[nm-1]	[nm-1]	[counts/s]
7.5476	87.0312	-1.19	0.12	0.00	17.51	7.290	5.24989	7.23435	1.3
7.5676	87.0312	-1.19	0.12	0.00	17.51	7.290	5.24737	7.23618	1.0
7.5876	87.0312	-1.19	0.12	0.00	17.51	7.290	5.24484	7.23801	1.1
7.6076	87.0312	-1.19	0.12	0.00	17.51	7.290	5.24231	7.23984	1.2
7.6276	87.0312	-1.19	0.12	0.00	17.51	7.290	5.23979	7.24167	1.1
7.6476	87.0312	-1.19	0.12	0.00	17.51	7.290	5.23726	7.24350	1.1
7.6676	87.0312	-1.19	0.12	0.00	17.51	7.290	5.23473	7.24533	1.5
7.6876	87.0312	-1.19	0.12	0.00	17.51	7.290	5.23220	7.24716	1.4
7.7076	87.0312	-1.19	0.12	0.00	17.51	7.290	5.22967	7.24898	1.3
7.7276	87.0312	-1.19	0.12	0.00	17.51	7.290	5.22714	7.25081	1.4
7.7476	87.0312	-1.19	0.12	0.00	17.51	7.290	5.22461	7.25263	1.3
7.7676	87.0312	-1.19	0.12	0.00	17.51	7.290	5.22208	7.25445	1.3
7.7876	87.0312	-1.19	0.12	0.00	17.51	7.290	5.21954	7.25628	1.6
7.8076	87.0312	-1.19	0.12	0.00	17.51	7.290	5.21701	7.25810	1.6
7.8276	87.0312	-1.19	0.12	0.00	17.51	7.290	5.21448	7.25992	1.5
7.8476	87.0312	-1.19	0.12	0.00	17.51	7.290	5.21194	7.26174	1.5
7.8676	87.0312	-1.19	0.12	0.00	17.51	7.290	5.20941	7.26356	1.6
7.8876	87.0312	-1.19	0.12	0.00	17.51	7.290	5.20687	7.26538	1.6
7.9076	87.0312	-1.19	0.12	0.00	17.51	7.290	5.20433	7.26719	1.7
7.9276	87.0312	-1.19	0.12	0.00	17.51	7.290	5.20180	7.26901	1.9
7.9476	87.0312	-1.19	0.12	0.00	17.51	7.290	5.19926	7.27083	2.0
7.9676	87.0312	-1.19	0.12	0.00	17.51	7.290	5.19672	7.27264	1.9
7.9876	87.0312	-1.19	0.12	0.00	17.51	7.290	5.19418	7.27445	1.7
8.0076	87.0312	-1.19	0.12	0.00	17.51	7.290	5.19164	7.27627	2.4
8.0276	87.0312	-1.19	0.12	0.00	17.51	7.290	5.18910	7.27808	2.2
8.0476	87.0312	-1.19	0.12	0.00	17.51	7.290	5.18656	7.27989	2.2
8.0676	87.0312	-1.19	0.12	0.00	17.51	7.290	5.18402	7.28170	2.1
8.0876	87.0312	-1.19	0.12	0.00	17.51	7.290	5.18148	7.28351	2.4
8.1076	87.0312	-1.19	0.12	0.00	17.51	7.290	5.17894	7.28531	2.8
8.1276	87.0312	-1.19	0.12	0.00	17.51	7.290	5.17639	7.28712	3.1
8.1476	87.0312	-1.19	0.12	0.00	17.51	7.290	5.17385	7.28893	3.3
8.1676	87.0312	-1.19	0.12	0.00	17.51	7.290	5.17130	7.29073	4.2
8.1876	87.0312	-1.19	0.12	0.00	17.51	7.290	5.16876	7.29254	4.8
8.2076	87.0312	-1.19	0.12	0.00	17.51	7.290	5.16621	7.29434	6.1
8.2276	87.0312	-1.19	0.12	0.00	17.51	7.290	5.16367	7.29615	7.3
8.2476	87.0312	-1.19	0.12	0.00	17.51	7.290	5.16112	7.29795	10.8
8.2676	87.0312	-1.19	0.12	0.00	17.51	7.290	5.15857	7.29975	17.0
8.2876	87.0312	-1.19	0.12	0.00	17.51	7.290	5.15602	7.30155	24.9
8.3076	87.0312	-1.19	0.12	0.00	17.51	7.290	5.15347	7.30335	38.7
8.3276	87.0312	-1.19	0.12	0.00	17.51	7.290	5.15092	7.30515	57.4
8.3476	87.0312	-1.19	0.12	0.00	17.51	7.290	5.14837	7.30694	86.7
8.3676	87.0312	-1.19	0.12	0.00	17.51	7.290	5.14582	7.30874	129.0
8.3876	87.0312	-1.19	0.12	0.00	17.51	7.290	5.14327	7.31054	185.1
8.4076	87.0312	-1.19	0.12	0.00	17.51	7.290	5.14072	7.31233	259.8
8.4276	87.0312	-1.19	0.12	0.00	17.51	7.290	5.13817	7.31413	344.6
8.4476	87.0312	-1.19	0.12	0.00	17.51	7.290	5.13561	7.31592	442.8
8.4676	87.0312	-1.19	0.12	0.00	17.51	7.290	5.13306	7.31771	535.2
8.4876	87.0312	-1.19	0.12	0.00	17.51	7.290	5.13050	7.31950	623.5
8.5076	87.0312	-1.19	0.12	0.00	17.51	7.290	5.12795	7.32129	711.6
8.5276	87.0312	-1.19	0.12	0.00	17.51	7.290	5.12539	7.32308	961.4
8.5476	87.0312	-1.19	0.12	0.00	17.51	7.290	5.12284	7.32487	1844.6
8.5676	87.0312	-1.19	0.12	0.00	17.51	7.290	5.12028	7.32666	1459.7
8.5876	87.0312	-1.19	0.12	0.00	17.51	7.290	5.11772	7.32845	819.6
8.6076	87.0312	-1.19	0.12	0.00	17.51	7.290	5.11516	7.33023	666.1
8.6276	87.0312	-1.19	0.12	0.00	17.51	7.290	5.11260	7.33202	558.8
8.6476	87.0312	-1.19	0.12	0.00	17.51	7.290	5.11004	7.33380	459.9
8.6676	87.0312	-1.19	0.12	0.00	17.51	7.290	5.10748	7.33558	371.0
8.6876	87.0312	-1.19	0.12	0.00	17.51	7.290	5.10492	7.33737	287.4
8.7076	87.0312	-1.19	0.12	0.00	17.51	7.290	5.10236	7.33915	215.5
8.7276	87.0312	-1.19	0.12	0.00	17.51	7.290	5.09980	7.34093	158.4
8.7476	87.0312	-1.19	0.12	0.00	17.51	7.290	5.09724	7.34271	113.4
8.7676	87.0312	-1.19	0.12	0.00	17.51	7.290	5.09467	7.34449	79.4
8.7876	87.0312	-1.19	0.12	0.00	17.51	7.290	5.09211	7.34627	55.5
8.8076	87.0312	-1.19	0.12	0.00	17.51	7.290	5.08954	7.34804	38.9
8.8276	87.0312	-1.19	0.12	0.00	17.51	7.290	5.08698	7.34982	26.2
8.8476	87.0312	-1.19	0.12	0.00	17.51	7.290	5.08441	7.35159	18.4
8.8676	87.0312	-1.19	0.12	0.00	17.51	7.290	5.08185	7.35337	12.9
8.8876	87.0312	-1.19	0.12	0.00	17.51	7.290	5.07928	7.35514	9.2
8.9076	87.0312	-1.19	0.12	0.00	17.51	7.290	5.07671	7.35691	7.6
8.9276	87.0312	-1.19	0.12	0.00	17.51	7.290	5.07414	7.35869	6.3
8.9476	87.0312	-1.19	0.12	0.00	17.51	7.290	5.07157	7.36046	6.0
8.9676	87.0312	-1.19	0.12	0.00	17.51	7.290	5.06900	7.36223	5.8
8.9876	87.0312	-1.19	0.12	0.00	17.51	7.290	5.06643	7.36400	5.8
9.0076	87.0312	-1.19	0.12	0.00	17.51	7.290	5.06386	7.36576	4.7
9.0276	87.0312	-1.19	0.12	0.00	17.51	7.290	5.06129	7.36753	3.1
9.0476	87.0312	-1.19	0.12	0.00	17.51	7.290	5.05872	7.36930	2.7
9.0676	87.0312	-1.19	0.12	0.00	17.51	7.290	5.05615	7.37106	2.4
9.0876	87.0312	-1.19	0.12	0.00	17.51	7.290	5.05357	7.37283	2.0
9.1076	87.0312	-1.19	0.12	0.00	17.51	7.290	5.05100	7.37459	2.3
9.1276	87.0312	-1.19	0.12	0.00	17.51	7.290	5.04843	7.37635	2.4
9.1476	87.0312	-1.19	0.12	0.00	17.51	7.290	5.04585	7.37812	2.1
9.1676	87.0312	-1.19	0.12	0.00	17.51	7.290	5.04327	7.37988	2.1
9.1876	87.0312	-1.19	0.12	0.00	17.51	7.290	5.04070	7.38164	2.3
9.2076	87.0312	-1.19	0.12	0.00	17.51	7.290	5.03812	7.38339	1.9
9.2276	87.0312	-1.19	0.12	0.00	17.51	7.290	5.03554	7.38515	1.7
9.2476	87.0312	-1.19	0.12	0.00	17.51	7.290	5.03297	7.38691	1.8
9.2676	87.0312	-1.19	0.12	0.00	17.51	7.290	5.03039	7.38867	1.8
9.2876	87.0312	-1.19	0.12	0.00	17.51	7.290	5.02781	7.39042	1.8
9.3076	87.0312	-1.19	0.12	0.00	17.51	7.290	5.02523	7.39218	1.8
9.3276	87.0312	-1.19	0.12	0.00	17.51	7.290	5.02265	7.39393	1.9
9.3476	87.0312	-1.19	0.12	0.00	17.51	7.290	5.02007	7.39568	1.7
9.3676	87.0312	-1.19	0.12	0.00	17.51	7.290	5.01748	7.39744	1.5
9.3876	87.0312	-1.19	0.12	0.00	17.51	7.290	5.01490	7.39919	1.6
9.4076	87.0312	-1.19	0.12	0.00	17.51	7.290	5.01232	7.40094	1.5
9.4276	87.0312	-1.19	0.12	0.00	17.51	7.290	5.00973	7.40269	1.5
9.4476	87.0312	-1.19	0.12	0.00	17.51	7.290	5.00715	7.40443	1.5
9.4676	87.0312	-1.19	0.12	0.00	17.51	7.290	5.00457	7.40618	1.4
9.4876	87.0312	-1.19	0.12	0.00	17.51	7.290	5.00198	7.40793	1.5
9.5076	87.0312	-1.19	0.12	0.00	17.51	7.290	4.99939	7.40967	1.2
9.5276	87.0312	-1.19	0.12	0.00	17.51	7.290	4.99681	7.41142	1.3
9.5045	86.6038	-1.18	0.12	0.00	17.42	7.253	4.96959	7.37658	1.5

File: 2.0deg-2.0deg-rsm-3h10mins_11352-as-grown_224_w-scans_w_000-198.dat
# filename: 2.0deg-2.0deg-rsm-3h10mins_11352-as-grown_224_w-scans.dat
# reflection: (004)
# type: Projection of 198 omega (rotated)  scans
# x-axis: omega
#
# Omega	2Theta	Phi  	Chi   	X    	Y    	Z    	q_para	q_perp	Intensity
# [deg]	[deg] 	[deg]	[deg] 	[mm] 	[mm] 	[mm] 	[nm-1]	[nm-1]	[counts/s]
7.1412	87.0524	1.28	0.08	-30.00	20.00	7.317	5.30344	7.19735	1.4
7.1612	87.0524	1.28	0.08	-30.00	20.00	7.317	5.30093	7.19920	1.5
7.1812	87.0524	1.28	0.08	-30.00	20.00	7.317	5.29841	7.20105	1.4
7.2012	87.0524	1.28	0.08	-30.00	20.00	7.317	5.29590	7.20290	1.6
7.2212	87.0524	1.28	0.08	-30.00	20.00	7.317	5.29338	7.20475	1.6
7.2412	87.0524	1.28	0.08	-30.00	20.00	7.317	5.29087	7.20660	1.4
7.2612	87.0524	1.28	0.08	-30.00	20.00	7.317	5.28835	7.20844	1.5
7.2812	87.0524	1.28	0.08	-30.00	20.00	7.317	5.28584	7.21029	1.4
7.3012	87.0524	1.28	0.08	-30.00	20.00	7.317	5.28332	7.21213	1.4
7.3212	87.0524	1.28	0.08	-30.00	20.00	7.317	5.28080	7.21398	1.5
7.3412	87.0524	1.28	0.08	-30.00	20.00	7.317	5.27828	7.21582	1.4
7.3612	87.0524	1.28	0.08	-30.00	20.00	7.317	5.27576	7.21766	1.6
7.3812	87.0524	1.28	0.08	-30.00	20.00	7.317	5.27324	7.21950	1.4
7.4012	87.0524	1.28	0.08	-30.00	20.00	7.317	5.27072	7.22134	1.6
7.4212	87.0524	1.28	0.08	-30.00	20.00	7.317	5.26820	7.22318	1.7
7.4412	87.0524	1.28	0.08	-30.00	20.00	7.317	5.26568	7.22502	1.7
7.4612	87.0524	1.28	0.08	-30.00	20.00	7.317	5.26316	7.22686	1.8
7.4812	87.0524	1.28	0.08	-30.00	20.00	7.317	5.26063	7.22870	1.7
7.5012	87.0524	1.28	0.08	-30.00	20.00	7.317	5.25811	7.23053	1.8
7.5212	87.0524	1.28	0.08	-30.00	20.00	7.317	5.25559	7.23237	1.9
7.5412	87.0524	1.28	0.08	-30.00	20.00	7.317	5.25306	7.23420	1.9
7.5612	87.0524	1.28	0.08	-30.00	20.00	7.317	5.25054	7.23603	1.8
7.5812	87.0524	1.28	0.08	-30.00	20.00	7.317	5.24801	7.23787	2.3
7.6012	87.0524	1.28	0.08	-30.00	20.00	7.317	5.24548	7.23970	2.1
7.6212	87.0524	1.28	0.08	-30.00	20.00	7.317	5.24296	7.24153	2.4
7.6412	87.0524	1.28	0.08	-30.00	20.00	7.317	5.24043	7.24336	2.3
7.6612	87.0524	1.28	0.08	-30.00	20.00	7.317	5.23790	7.24519	2.3
7.6812	87.0524	1.28	0.08	-30.00	20.00	7.317	5.23537	7.24702	2.5
7.7012	87.0524	1.28	0.08	-30.00	20.00	7.317	5.23284	7.24884	2.6
7.7212	87.0524	1.28	0.08	-30.00	20.00	7.317	5.23031	7.25067	3.0
7.7412	87.0524	1.28	0.08	-30.00	20.00	7.317	5.22778	7.25249	2.7
7.7612	87.0524	1.28	0.08	-30.00	20.00	7.317	5.22525	7.25432	2.8
7.7812	87.0524	1.28	0.08	-30.00	20.00	7.317	5.22271	7.25614	3.4
7.8012	87.0524	1.28	0.08	-30.00	20.00	7.317	5.22018	7.25796	4.4
7.8212	87.0524	1.28	0.08	-30.00	20.00	7.317	5.21765	7.25979	4.7
7.8412	87.0524	1.28	0.08	-30.00	20.00	7.317	5.21511	7.26161	7.1
7.8612	87.0524	1.28	0.08	-30.00	20.00	7.317	5.21258	7.26343	8.5
7.8812	87.0524	1.28	0.08	-30.00	20.00	7.317	5.21004	7.26525	13.3
7.9012	87.0524	1.28	0.08	-30.00	20.00	7.317	5.20751	7.26706	21.3
7.9212	87.0524	1.28	0.08	-30.00	20.00	7.317	5.20497	7.26888	32.3
7.9412	87.0524	1.28	0.08	-30.00	20.00	7.317	5.20243	7.27070	50.9
7.9612	87.0524	1.28	0.08	-30.00	20.00	7.317	5.19989	7.27251	77.2
7.9812	87.0524	1.28	0.08	-30.00	20.00	7.317	5.19735	7.27433	117.9
8.0012	87.0524	1.28	0.08	-30.00	20.00	7.317	5.19481	7.27614	172.6
8.0212	87.0524	1.28	0.08	-30.00	20.00	7.317	5.19227	7.27795	246.0
8.0412	87.0524	1.28	0.08	-30.00	20.00	7.317	5.18973	7.27977	335.0
8.0612	87.0524	1.28	0.08	-30.00	20.00	7.317	5.18719	7.28158	428.9
8.0812	87.0524	1.28	0.08	-30.00	20.00	7.317	5.18465	7.28339	539.2
8.1012	87.0524	1.28	0.08	-30.00	20.00	7.317	5.18211	7.28520	651.3
8.1212	87.0524	1.28	0.08	-30.00	20.00	7.317	5.17956	7.28701	916.5
8.1412	87.0524	1.28	0.08	-30.00	20.00	7.317	5.17702	7.28881	1830.8
8.1612	87.0524	1.28	0.08	-30.00	20.00	7.317	5.17447	7.29062	881.0
8.1812	87.0524	1.28	0.08	-30.00	20.00	7.317	5.17193	7.29243	757.4
8.2012	87.0524	1.28	0.08	-30.00	20.00	7.317	5.16938	7.29423	681.1
8.2212	87.0524	1.28	0.08	-30.00	20.00	7.317	5.16684	7.29603	594.2
8.2412	87.0524	1.28	0.08	-30.00	20.00	7.317	5.16429	7.29784	503.8
8.2612	87.0524	1.28	0.08	-30.00	20.00	7.317	5.16174	7.29964	411.7
8.2812	87.0524	1.28	0.08	-30.00	20.00	7.317	5.15919	7.30144	315.7
8.3012	87.0524	1.28	0.08	-30.00	20.00	7.317	5.15664	7.30324	230.5
8.3212	87.0524	1.28	0.08	-30.00	20.00	7.317	5.15410	7.30504	161.6
8.3412	87.0524	1.28	0.08	-30.00	20.00	7.317	5.15154	7.30684	109.2
8.3612	87.0524	1.28	0.08	-30.00	20.00	7.317	5.14899	7.30864	72.9
8.3812	87.0524	1.28	0.08	-30.00	20.00	7.317	5.14644	7.31044	48.5
8.4012	87.0524	1.28	0.08	-30.00	20.00	7.317	5.14389	7.31223	31.7
8.4212	87.0524	1.28	0.08	-30.00	20.00	7.317	5.14134	7.31403	20.9
8.4412	87.0524	1.28	0.08	-30.00	20.00	7.317	5.13878	7.31582	13.9
8.4612	87.0524	1.28	0.08	-30.00	20.00	7.317	5.13623	7.31761	9.3
8.4812	87.0524	1.28	0.08	-30.00	20.00	7.317	5.13368	7.31941	7.2
8.5012	87.0524	1.28	0.08	-30.00	20.00	7.317	5.13112	7.32120	5.6
8.5212	87.0524	1.28	0.08	-30.00	20.00	7.317	5.12856	7.32299	4.3
8.5412	87.0524	1.28	0.08	-30.00	20.00	7.317	5.12601	7.32478	4.1
8.5612	87.0524	1.28	0.08	-30.00	20.00	7.317	5.12345	7.32657	3.1
8.5812	87.0524	1.28	0.08	-30.00	20.00	7.317	5.12089	7.32835	3.2
8.6012	87.0524	1.28	0.08	-30.00	20.00	7.317	5.11833	7.33014	2.9
8.6212	87.0524	1.28	0.08	-30.00	20.00	7.317	5.11578	7.33193	2.4
8.6412	87.0524	1.28	0.08	-30.00	20.00	7.317	5.11322	7.33371	2.4
8.6612	87.0524	1.28	0.08	-30.00	20.00	7.317	5.11066	7.33550	2.5
8.6812	87.0524	1.28	0.08	-30.00	20.00	7.317	5.10809	7.33728	2.4
8.7012	87.0524	1.28	0.08	-30.00	20.00	7.317	5.10553	7.33906	2.4
8.7212	87.0524	1.28	0.08	-30.00	20.00	7.317	5.10297	7.34085	2.3
8.7412	87.0524	1.28	0.08	-30.00	20.00	7.317	5.10041	7.34263	2.4
8.7612	87.0524	1.28	0.08	-30.00	20.00	7.317	5.09785	7.34441	2.2
8.7812	87.0524	1.28	0.08	-30.00	20.00	7.317	5.09528	7.34619	2.0
8.8012	87.0524	1.28	0.08	-30.00	20.00	7.317	5.09272	7.34796	2.1
8.8212	87.0524	1.28	0.08	-30.00	20.00	7.317	5.09015	7.34974	2.1
8.8412	87.0524	1.28	0.08	-30.00	20.00	7.317	5.08759	7.35152	1.9
8.8612	87.0524	1.28	0.08	-30.00	20.00	7.317	5.08502	7.35329	2.2
8.8812	87.0524	1.28	0.08	-30.00	20.00	7.317	5.08245	7.35507	2.1
8.9012	87.0524	1.28	0.08	-30.00	20.00	7.317	5.07988	7.35684	2.0
8.9212	87.0524	1.28	0.08	-30.00	20.00	7.317	5.07732	7.35861	2.2
8.9412	87.0524	1.28	0.08	-30.00	20.00	7.317	5.07475	7.36039	2.1
8.9612	87.0524	1.28	0.08	-30.00	20.00	7.317	5.07218	7.36216	2.0
8.9812	87.0524	1.28	0.08	-30.00	20.00	7.317	5.06961	7.36393	2.1
9.0012	87.0524	1.28	0.08	-30.00	20.00	7.317	5.06704	7.36570	1.7
9.0212	87.0524	1.28	0.08	-30.00	20.00	7.317	5.06446	7.36746	1.8
9.0412	87.0524	1.28	0.08	-30.00	20.00	7.317	5.06189	7.36923	1.6
9.0612	87.0524	1.28	0.08	-30.00	20.00	7.317	5.05932	7.37100	1.9
9.0812	87.0524	1.28	0.08	-30.00	20.00	7.317	5.05675	7.37276	1.6
9.1012	87.0524	1.28	0.08	-30.00	20.00	7.317	5.05417	7.37453	1.6
9.1212	87.0524	1.28	0.08	-30.00	20.00	7.317	5.05160	7.37629	1.3
9.1001	86.6249	1.27	0.08	-29.85	19.90	7.280	5.02413	7.34165	1.4

File: 2.0deg-2.0deg-rsm-3h10mins_11354-annealed_224_w-scans_w_000-198.dat
# filename: 2.0deg-2.0deg-rsm-3h10mins_11354-annealed_224_w-scans.dat
# reflection: (004)
# type: Projection of 198 omega (rotated)  scans
# x-axis: omega
#
# Omega	2Theta	Phi  	Chi   	X    	Y    	Z    	q_para	q_perp	Intensity
# [deg]	[deg] 	[deg]	[deg] 	[mm] 	[mm] 	[mm] 	[nm-1]	[nm-1]	[counts/s]
7.7852	87.0542	-0.10	0.10	0.00	-22.75	7.333	5.22241	7.25654	1.5
7.8052	87.0542	-0.10	0.10	0.00	-22.75	7.333	5.21987	7.25837	1.3
7.8252	87.0542	-0.10	0.10	0.00	-22.75	7.333	5.21734	7.26019	1.3
7.8452	87.0542	-0.10	0.10	0.00	-22.75	7.333	5.21481	7.26201	1.4
7.8652	87.0542	-0.10	0.10	0.00	-22.75	7.333	5.21227	7.26383	1.1
7.8852	87.0542	-0.10	0.10	0.00	-22.75	7.333	5.20973	7.26565	1.4
7.9052	87.0542	-0.10	0.10	0.00	-22.75	7.333	5.20720	7.26747	1.4
7.9252	87.0542	-0.10	0.10	0.00	-22.75	7.333	5.20466	7.26928	1.4
7.9452	87.0542	-0.10	0.10	0.00	-22.75	7.333	5.20212	7.27110	1.4
7.9652	87.0542	-0.10	0.10	0.00	-22.75	7.333	5.19958	7.27292	1.4
7.9852	87.0542	-0.10	0.10	0.00	-22.75	7.333	5.19705	7.27473	1.4
8.0052	87.0542	-0.10	0.10	0.00	-22.75	7.333	5.19451	7.27654	1.8
8.0252	87.0542	-0.10	0.10	0.00	-22.75	7.333	5.19197	7.27836	1.6
8.0452	87.0542	-0.10	0.10	0.00	-22.75	7.333	5.18942	7.28017	1.7
8.0652	87.0542	-0.10	0.10	0.00	-22.75	7.333	5.18688	7.28198	1.6
8.0852	87.0542	-0.10	0.10	0.00	-22.75	7.333	5.18434	7.28379	1.8
8.1052	87.0542	-0.10	0.10	0.00	-22.75	7.333	5.18180	7.28560	1.8
8.1252	87.0542	-0.10	0.10	0.00	-22.75	7.333	5.17925	7.28741	1.8
8.1452	87.0542	-0.10	0.10	0.00	-22.75	7.333	5.17671	7.28921	2.1
8.1652	87.0542	-0.10	0.10	0.00	-22.75	7.333	5.17417	7.29102	1.7
8.1852	87.0542	-0.10	0.10	0.00	-22.75	7.333	5.17162	7.29283	2.0
8.2052	87.0542	-0.10	0.10	0.00	-22.75	7.333	5.16907	7.29463	1.6
8.2252	87.0542	-0.10	0.10	0.00	-22.75	7.333	5.16653	7.29644	2.1
8.2452	87.0542	-0.10	0.10	0.00	-22.75	7.333	5.16398	7.29824	2.1
8.2652	87.0542	-0.10	0.10	0.00	-22.75	7.333	5.16143	7.30004	2.2
8.2852	87.0542	-0.10	0.10	0.00	-22.75	7.333	5.15888	7.30184	2.2
8.3052	87.0542	-0.10	0.10	0.00	-22.75	7.333	5.15633	7.30364	2.3
8.3252	87.0542	-0.10	0.10	0.00	-22.75	7.333	5.15378	7.30544	2.8
8.3452	87.0542	-0.10	0.10	0.00	-22.75	7.333	5.15123	7.30724	3.0
8.3652	87.0542	-0.10	0.10	0.00	-22.75	7.333	5.14868	7.30904	3.5
8.3852	87.0542	-0.10	0.10	0.00	-22.75	7.333	5.14613	7.31083	3.6
8.4052	87.0542	-0.10	0.10	0.00	-22.75	7.333	5.14358	7.31263	4.5
8.4252	87.0542	-0.10	0.10	0.00	-22.75	7.333	5.14103	7.31443	5.3
8.4452	87.0542	-0.10	0.10	0.00	-22.75	7.333	5.13847	7.31622	7.2
8.4652	87.0542	-0.10	0.10	0.00	-22.75	7.333	5.13592	7.31801	11.0
8.4852	87.0542	-0.10	0.10	0.00	-22.75	7.333	5.13336	7.31981	17.2
8.5052	87.0542	-0.10	0.10	0.00	-22.75	7.333	5.13081	7.32160	24.0
8.5252	87.0542	-0.10	0.10	0.00	-22.75	7.333	5.12825	7.32339	36.1
8.5452	87.0542	-0.10	0.10	0.00	-22.75	7.333	5.12570	7.32518	51.9
8.5652	87.0542	-0.10	0.10	0.00	-22.75	7.333	5.12314	7.32696	77.6
8.5852	87.0542	-0.10	0.10	0.00	-22.75	7.333	5.12058	7.32875	108.2
8.6052	87.0542	-0.10	0.10	0.00	-22.75	7.333	5.11802	7.33054	146.6
8.6252	87.0542	-0.10	0.10	0.00	-22.75	7.333	5.11546	7.33233	195.3
8.6452	87.0542	-0.10	0.10	0.00	-22.75	7.333	5.11290	7.33411	253.7
8.6652	87.0542	-0.10	0.10	0.00	-22.75	7.333	5.11034	7.33590	322.8
8.6852	87.0542	-0.10	0.10	0.00	-22.75	7.333	5.10778	7.33768	397.5
8.7052	87.0542	-0.10	0.10	0.00	-22.75	7.333	5.10522	7.33946	482.4
8.7252	87.0542	-0.10	0.10	0.00	-22.75	7.333	5.10266	7.34124	572.7
8.7452	87.0542	-0.10	0.10	0.00	-22.75	7.333	5.10010	7.34302	658.8
8.7652	87.0542	-0.10	0.10	0.00	-22.75	7.333	5.09753	7.34480	829.5
8.7852	87.0542	-0.10	0.10	0.00	-22.75	7.333	5.09497	7.34658	2936.9
8.8052	87.0542	-0.10	0.10	0.00	-22.75	7.333	5.09240	7.34836	903.3
8.8252	87.0542	-0.10	0.10	0.00	-22.75	7.333	5.08984	7.35014	716.5
8.8452	87.0542	-0.10	0.10	0.00	-22.75	7.333	5.08727	7.35191	618.5
8.8652	87.0542	-0.10	0.10	0.00	-22.75	7.333	5.08470	7.35369	525.1
8.8852	87.0542	-0.10	0.10	0.00	-22.75	7.333	5.08214	7.35546	439.1
8.9052	87.0542	-0.10	0.10	0.00	-22.75	7.333	5.07957	7.35724	364.7
8.9252	87.0542	-0.10	0.10	0.00	-22.75	7.333	5.07700	7.35901	283.9
8.9452	87.0542	-0.10	0.10	0.00	-22.75	7.333	5.07443	7.36078	216.0
8.9652	87.0542	-0.10	0.10	0.00	-22.75	7.333	5.07186	7.36255	159.6
8.9852	87.0542	-0.10	0.10	0.00	-22.75	7.333	5.06929	7.36432	117.8
9.0052	87.0542	-0.10	0.10	0.00	-22.75	7.333	5.06672	7.36609	80.7
9.0252	87.0542	-0.10	0.10	0.00	-22.75	7.333	5.06415	7.36786	56.8
9.0452	87.0542	-0.10	0.10	0.00	-22.75	7.333	5.06158	7.36963	38.1
9.0652	87.0542	-0.10	0.10	0.00	-22.75	7.333	5.05901	7.37139	27.2
9.0852	87.0542	-0.10	0.10	0.00	-22.75	7.333	5.05643	7.37316	17.7
9.1052	87.0542	-0.10	0.10	0.00	-22.75	7.333	5.05386	7.37492	13.9
9.1252	87.0542	-0.10	0.10	0.00	-22.75	7.333	5.05128	7.37669	10.0
9.1452	87.0542	-0.10	0.10	0.00	-22.75	7.333	5.04871	7.37845	7.2
9.1652	87.0542	-0.10	0.10	0.00	-22.75	7.333	5.04613	7.38021	5.7
9.1852	87.0542	-0.10	0.10	0.00	-22.75	7.333	5.04356	7.38197	4.4
9.2052	87.0542	-0.10	0.10	0.00	-22.75	7.333	5.04098	7.38373	3.9
9.2252	87.0542	-0.10	0.10	0.00	-22.75	7.333	5.03840	7.38549	3.8
9.2452	87.0542	-0.10	0.10	0.00	-22.75	7.333	5.03582	7.38725	3.3
9.2652	87.0542	-0.10	0.10	0.00	-22.75	7.333	5.03324	7.38901	3.1
9.2852	87.0542	-0.10	0.10	0.00	-22.75	7.333	5.03066	7.39076	2.8
9.3052	87.0542	-0.10	0.10	0.00	-22.75	7.333	5.02808	7.39252	2.3
9.3252	87.0542	-0.10	0.10	0.00	-22.75	7.333	5.02550	7.39427	2.3
9.3452	87.0542	-0.10	0.10	0.00	-22.75	7.333	5.02292	7.39603	2.2
9.3652	87.0542	-0.10	0.10	0.00	-22.75	7.333	5.02034	7.39778	2.3
9.3852	87.0542	-0.10	0.10	0.00	-22.75	7.333	5.01776	7.39953	2.4
9.4052	87.0542	-0.10	0.10	0.00	-22.75	7.333	5.01517	7.40128	2.3
9.4252	87.0542	-0.10	0.10	0.00	-22.75	7.333	5.01259	7.40303	2.1
9.4452	87.0542	-0.10	0.10	0.00	-22.75	7.333	5.01001	7.40478	1.8
9.4652	87.0542	-0.10	0.10	0.00	-22.75	7.333	5.00742	7.40653	2.1
9.4852	87.0542	-0.10	0.10	0.00	-22.75	7.333	5.00483	7.40828	2.1
9.5052	87.0542	-0.10	0.10	0.00	-22.75	7.333	5.00225	7.41003	1.9
9.5252	87.0542	-0.10	0.10	0.00	-22.75	7.333	4.99966	7.41177	1.9
9.5452	87.0542	-0.10	0.10	0.00	-22.75	7.333	4.99707	7.41352	2.2
9.5652	87.0542	-0.10	0.10	0.00	-22.75	7.333	4.99449	7.41526	2.0
9.5852	87.0542	-0.10	0.10	0.00	-22.75	7.333	4.99190	7.41700	1.8
9.6052	87.0542	-0.10	0.10	0.00	-22.75	7.333	4.98931	7.41875	1.9
9.6252	87.0542	-0.10	0.10	0.00	-22.75	7.333	4.98672	7.42049	1.9
9.6452	87.0542	-0.10	0.10	0.00	-22.75	7.333	4.98413	7.42223	1.9
9.6652	87.0542	-0.10	0.10	0.00	-22.75	7.333	4.98154	7.42397	1.7
9.6852	87.0542	-0.10	0.10	0.00	-22.75	7.333	4.97894	7.42570	1.7
9.7052	87.0542	-0.10	0.10	0.00	-22.75	7.333	4.97635	7.42744	1.3
9.7252	87.0542	-0.10	0.10	0.00	-22.75	7.333	4.97376	7.42918	1.4
9.7452	87.0542	-0.10	0.10	0.00	-22.75	7.333	4.97117	7.43091	1.8
9.7652	87.0542	-0.10	0.10	0.00	-22.75	7.333	4.96857	7.43265	1.4
9.7409	86.6267	-0.10	0.10	0.00	-22.64	7.296	4.94149	7.39770	1.8