Folder: Thesis_XRD/Data/113xx/Projected_0-200 (part 6)

File: 2.0deg-2.0deg-rsm-3h10mins_11358-annealed_224_w-scans_w_000-198.dat
# filename: 2.0deg-2.0deg-rsm-3h10mins_11358-annealed_224_w-scans.dat
# reflection: (004)
# type: Projection of 198 omega (rotated)  scans
# x-axis: omega
#
# Omega	2Theta	Phi  	Chi   	X    	Y    	Z    	q_para	q_perp	Intensity
# [deg]	[deg] 	[deg]	[deg] 	[mm] 	[mm] 	[mm] 	[nm-1]	[nm-1]	[counts/s]
7.1445	87.0524	-0.24	0.13	0.00	-23.01	7.396	5.30302	7.19766	1.3
7.1645	87.0524	-0.24	0.13	0.00	-23.01	7.396	5.30051	7.19951	1.6
7.1845	87.0524	-0.24	0.13	0.00	-23.01	7.396	5.29800	7.20136	1.3
7.2045	87.0524	-0.24	0.13	0.00	-23.01	7.396	5.29548	7.20321	1.2
7.2245	87.0524	-0.24	0.13	0.00	-23.01	7.396	5.29297	7.20505	1.6
7.2445	87.0524	-0.24	0.13	0.00	-23.01	7.396	5.29045	7.20690	1.4
7.2645	87.0524	-0.24	0.13	0.00	-23.01	7.396	5.28794	7.20875	1.2
7.2845	87.0524	-0.24	0.13	0.00	-23.01	7.396	5.28542	7.21059	1.2
7.3045	87.0524	-0.24	0.13	0.00	-23.01	7.396	5.28290	7.21244	1.4
7.3245	87.0524	-0.24	0.13	0.00	-23.01	7.396	5.28038	7.21428	1.5
7.3445	87.0524	-0.24	0.13	0.00	-23.01	7.396	5.27787	7.21612	1.5
7.3645	87.0524	-0.24	0.13	0.00	-23.01	7.396	5.27535	7.21797	1.6
7.3845	87.0524	-0.24	0.13	0.00	-23.01	7.396	5.27283	7.21981	1.9
7.4045	87.0524	-0.24	0.13	0.00	-23.01	7.396	5.27031	7.22165	1.6
7.4245	87.0524	-0.24	0.13	0.00	-23.01	7.396	5.26779	7.22349	1.6
7.4445	87.0524	-0.24	0.13	0.00	-23.01	7.396	5.26526	7.22533	2.0
7.4645	87.0524	-0.24	0.13	0.00	-23.01	7.396	5.26274	7.22716	1.8
7.4845	87.0524	-0.24	0.13	0.00	-23.01	7.396	5.26022	7.22900	1.8
7.5045	87.0524	-0.24	0.13	0.00	-23.01	7.396	5.25769	7.23084	1.8
7.5245	87.0524	-0.24	0.13	0.00	-23.01	7.396	5.25517	7.23267	2.1
7.5445	87.0524	-0.24	0.13	0.00	-23.01	7.396	5.25265	7.23450	2.2
7.5645	87.0524	-0.24	0.13	0.00	-23.01	7.396	5.25012	7.23634	2.0
7.5845	87.0524	-0.24	0.13	0.00	-23.01	7.396	5.24759	7.23817	2.3
7.6045	87.0524	-0.24	0.13	0.00	-23.01	7.396	5.24507	7.24000	2.5
7.6245	87.0524	-0.24	0.13	0.00	-23.01	7.396	5.24254	7.24183	2.9
7.6445	87.0524	-0.24	0.13	0.00	-23.01	7.396	5.24001	7.24366	3.5
7.6645	87.0524	-0.24	0.13	0.00	-23.01	7.396	5.23748	7.24549	4.5
7.6845	87.0524	-0.24	0.13	0.00	-23.01	7.396	5.23495	7.24732	5.4
7.7045	87.0524	-0.24	0.13	0.00	-23.01	7.396	5.23242	7.24914	7.8
7.7245	87.0524	-0.24	0.13	0.00	-23.01	7.396	5.22989	7.25097	10.5
7.7445	87.0524	-0.24	0.13	0.00	-23.01	7.396	5.22736	7.25280	14.9
7.7645	87.0524	-0.24	0.13	0.00	-23.01	7.396	5.22483	7.25462	21.9
7.7845	87.0524	-0.24	0.13	0.00	-23.01	7.396	5.22230	7.25644	31.0
7.8045	87.0524	-0.24	0.13	0.00	-23.01	7.396	5.21976	7.25826	45.9
7.8245	87.0524	-0.24	0.13	0.00	-23.01	7.396	5.21723	7.26009	65.0
7.8445	87.0524	-0.24	0.13	0.00	-23.01	7.396	5.21469	7.26191	91.3
7.8645	87.0524	-0.24	0.13	0.00	-23.01	7.396	5.21216	7.26373	121.5
7.8845	87.0524	-0.24	0.13	0.00	-23.01	7.396	5.20962	7.26555	165.3
7.9045	87.0524	-0.24	0.13	0.00	-23.01	7.396	5.20709	7.26736	209.2
7.9245	87.0524	-0.24	0.13	0.00	-23.01	7.396	5.20455	7.26918	264.8
7.9445	87.0524	-0.24	0.13	0.00	-23.01	7.396	5.20201	7.27100	320.2
7.9645	87.0524	-0.24	0.13	0.00	-23.01	7.396	5.19947	7.27281	374.9
7.9845	87.0524	-0.24	0.13	0.00	-23.01	7.396	5.19693	7.27463	430.1
8.0045	87.0524	-0.24	0.13	0.00	-23.01	7.396	5.19439	7.27644	474.6
8.0245	87.0524	-0.24	0.13	0.00	-23.01	7.396	5.19185	7.27825	507.2
8.0445	87.0524	-0.24	0.13	0.00	-23.01	7.396	5.18931	7.28007	531.9
8.0645	87.0524	-0.24	0.13	0.00	-23.01	7.396	5.18677	7.28188	544.1
8.0845	87.0524	-0.24	0.13	0.00	-23.01	7.396	5.18423	7.28369	544.1
8.1045	87.0524	-0.24	0.13	0.00	-23.01	7.396	5.18169	7.28550	549.1
8.1245	87.0524	-0.24	0.13	0.00	-23.01	7.396	5.17914	7.28730	651.7
8.1445	87.0524	-0.24	0.13	0.00	-23.01	7.396	5.17660	7.28911	2449.7
8.1645	87.0524	-0.24	0.13	0.00	-23.01	7.396	5.17405	7.29092	610.7
8.1845	87.0524	-0.24	0.13	0.00	-23.01	7.396	5.17151	7.29272	411.6
8.2045	87.0524	-0.24	0.13	0.00	-23.01	7.396	5.16896	7.29453	325.9
8.2245	87.0524	-0.24	0.13	0.00	-23.01	7.396	5.16642	7.29633	266.4
8.2445	87.0524	-0.24	0.13	0.00	-23.01	7.396	5.16387	7.29814	217.3
8.2645	87.0524	-0.24	0.13	0.00	-23.01	7.396	5.16132	7.29994	180.1
8.2845	87.0524	-0.24	0.13	0.00	-23.01	7.396	5.15877	7.30174	147.6
8.3045	87.0524	-0.24	0.13	0.00	-23.01	7.396	5.15622	7.30354	123.9
8.3245	87.0524	-0.24	0.13	0.00	-23.01	7.396	5.15367	7.30534	102.4
8.3445	87.0524	-0.24	0.13	0.00	-23.01	7.396	5.15112	7.30714	84.0
8.3645	87.0524	-0.24	0.13	0.00	-23.01	7.396	5.14857	7.30893	69.9
8.3845	87.0524	-0.24	0.13	0.00	-23.01	7.396	5.14602	7.31073	58.2
8.4045	87.0524	-0.24	0.13	0.00	-23.01	7.396	5.14347	7.31253	46.2
8.4245	87.0524	-0.24	0.13	0.00	-23.01	7.396	5.14092	7.31432	36.4
8.4445	87.0524	-0.24	0.13	0.00	-23.01	7.396	5.13836	7.31612	28.1
8.4645	87.0524	-0.24	0.13	0.00	-23.01	7.396	5.13581	7.31791	22.3
8.4845	87.0524	-0.24	0.13	0.00	-23.01	7.396	5.13325	7.31970	17.5
8.5045	87.0524	-0.24	0.13	0.00	-23.01	7.396	5.13070	7.32149	13.5
8.5245	87.0524	-0.24	0.13	0.00	-23.01	7.396	5.12814	7.32328	9.9
8.5445	87.0524	-0.24	0.13	0.00	-23.01	7.396	5.12559	7.32507	7.7
8.5645	87.0524	-0.24	0.13	0.00	-23.01	7.396	5.12303	7.32686	5.6
8.5845	87.0524	-0.24	0.13	0.00	-23.01	7.396	5.12047	7.32865	4.4
8.6045	87.0524	-0.24	0.13	0.00	-23.01	7.396	5.11791	7.33044	4.0
8.6245	87.0524	-0.24	0.13	0.00	-23.01	7.396	5.11535	7.33222	2.7
8.6445	87.0524	-0.24	0.13	0.00	-23.01	7.396	5.11279	7.33401	2.8
8.6645	87.0524	-0.24	0.13	0.00	-23.01	7.396	5.11023	7.33579	2.4
8.6845	87.0524	-0.24	0.13	0.00	-23.01	7.396	5.10767	7.33758	2.2
8.7045	87.0524	-0.24	0.13	0.00	-23.01	7.396	5.10511	7.33936	2.0
8.7245	87.0524	-0.24	0.13	0.00	-23.01	7.396	5.10255	7.34114	2.2
8.7445	87.0524	-0.24	0.13	0.00	-23.01	7.396	5.09999	7.34292	1.8
8.7645	87.0524	-0.24	0.13	0.00	-23.01	7.396	5.09742	7.34470	1.8
8.7845	87.0524	-0.24	0.13	0.00	-23.01	7.396	5.09486	7.34648	1.8
8.8045	87.0524	-0.24	0.13	0.00	-23.01	7.396	5.09229	7.34826	1.7
8.8245	87.0524	-0.24	0.13	0.00	-23.01	7.396	5.08973	7.35003	1.9
8.8445	87.0524	-0.24	0.13	0.00	-23.01	7.396	5.08716	7.35181	2.0
8.8645	87.0524	-0.24	0.13	0.00	-23.01	7.396	5.08459	7.35359	1.8
8.8845	87.0524	-0.24	0.13	0.00	-23.01	7.396	5.08203	7.35536	1.6
8.9045	87.0524	-0.24	0.13	0.00	-23.01	7.396	5.07946	7.35713	1.8
8.9245	87.0524	-0.24	0.13	0.00	-23.01	7.396	5.07689	7.35891	1.9
8.9445	87.0524	-0.24	0.13	0.00	-23.01	7.396	5.07432	7.36068	1.6
8.9645	87.0524	-0.24	0.13	0.00	-23.01	7.396	5.07175	7.36245	1.7
8.9845	87.0524	-0.24	0.13	0.00	-23.01	7.396	5.06918	7.36422	1.7
9.0045	87.0524	-0.24	0.13	0.00	-23.01	7.396	5.06661	7.36599	1.4
9.0245	87.0524	-0.24	0.13	0.00	-23.01	7.396	5.06404	7.36776	1.7
9.0445	87.0524	-0.24	0.13	0.00	-23.01	7.396	5.06147	7.36952	1.6
9.0645	87.0524	-0.24	0.13	0.00	-23.01	7.396	5.05890	7.37129	1.5
9.0845	87.0524	-0.24	0.13	0.00	-23.01	7.396	5.05632	7.37306	1.4
9.1045	87.0524	-0.24	0.13	0.00	-23.01	7.396	5.05375	7.37482	1.5
9.1245	87.0524	-0.24	0.13	0.00	-23.01	7.396	5.05117	7.37658	1.5
9.1034	86.6249	-0.24	0.13	0.00	-22.89	7.359	5.02371	7.34194	1.3

File: 2.0deg-2.0deg-rsm-3h10mins_11358-as-grown_224_w-scans_w_000-198.dat
# filename: 2.0deg-2.0deg-rsm-3h10mins_11358-as-grown_224_w-scans.dat
# reflection: (004)
# type: Projection of 198 omega (rotated)  scans
# x-axis: omega
#
# Omega	2Theta	Phi  	Chi   	X    	Y    	Z    	q_para	q_perp	Intensity
# [deg]	[deg] 	[deg]	[deg] 	[mm] 	[mm] 	[mm] 	[nm-1]	[nm-1]	[counts/s]
7.0688	87.0534	2.82	0.06	10.00	-20.00	7.326	5.31264	7.19066	1.2
7.0888	87.0534	2.82	0.06	10.00	-20.00	7.326	5.31013	7.19252	1.2
7.1088	87.0534	2.82	0.06	10.00	-20.00	7.326	5.30762	7.19437	1.4
7.1288	87.0534	2.82	0.06	10.00	-20.00	7.326	5.30511	7.19622	1.4
7.1488	87.0534	2.82	0.06	10.00	-20.00	7.326	5.30259	7.19807	1.5
7.1688	87.0534	2.82	0.06	10.00	-20.00	7.326	5.30008	7.19993	1.4
7.1888	87.0534	2.82	0.06	10.00	-20.00	7.326	5.29757	7.20177	1.7
7.2088	87.0534	2.82	0.06	10.00	-20.00	7.326	5.29505	7.20362	1.5
7.2288	87.0534	2.82	0.06	10.00	-20.00	7.326	5.29254	7.20547	1.3
7.2488	87.0534	2.82	0.06	10.00	-20.00	7.326	5.29002	7.20732	1.6
7.2688	87.0534	2.82	0.06	10.00	-20.00	7.326	5.28751	7.20917	1.7
7.2888	87.0534	2.82	0.06	10.00	-20.00	7.326	5.28499	7.21101	1.6
7.3088	87.0534	2.82	0.06	10.00	-20.00	7.326	5.28247	7.21285	1.9
7.3288	87.0534	2.82	0.06	10.00	-20.00	7.326	5.27996	7.21470	1.5
7.3488	87.0534	2.82	0.06	10.00	-20.00	7.326	5.27744	7.21654	1.7
7.3688	87.0534	2.82	0.06	10.00	-20.00	7.326	5.27492	7.21838	1.8
7.3888	87.0534	2.82	0.06	10.00	-20.00	7.326	5.27240	7.22022	1.7
7.4088	87.0534	2.82	0.06	10.00	-20.00	7.326	5.26988	7.22206	1.6
7.4288	87.0534	2.82	0.06	10.00	-20.00	7.326	5.26736	7.22390	1.6
7.4488	87.0534	2.82	0.06	10.00	-20.00	7.326	5.26483	7.22574	1.9
7.4688	87.0534	2.82	0.06	10.00	-20.00	7.326	5.26231	7.22758	1.9
7.4888	87.0534	2.82	0.06	10.00	-20.00	7.326	5.25979	7.22941	2.1
7.5088	87.0534	2.82	0.06	10.00	-20.00	7.326	5.25726	7.23125	2.1
7.5288	87.0534	2.82	0.06	10.00	-20.00	7.326	5.25474	7.23308	2.4
7.5488	87.0534	2.82	0.06	10.00	-20.00	7.326	5.25221	7.23492	2.6
7.5688	87.0534	2.82	0.06	10.00	-20.00	7.326	5.24969	7.23675	2.8
7.5888	87.0534	2.82	0.06	10.00	-20.00	7.326	5.24716	7.23858	3.2
7.6088	87.0534	2.82	0.06	10.00	-20.00	7.326	5.24463	7.24041	3.4
7.6288	87.0534	2.82	0.06	10.00	-20.00	7.326	5.24211	7.24224	3.9
7.6488	87.0534	2.82	0.06	10.00	-20.00	7.326	5.23958	7.24407	5.6
7.6688	87.0534	2.82	0.06	10.00	-20.00	7.326	5.23705	7.24590	7.4
7.6888	87.0534	2.82	0.06	10.00	-20.00	7.326	5.23452	7.24773	9.2
7.7088	87.0534	2.82	0.06	10.00	-20.00	7.326	5.23199	7.24956	13.5
7.7288	87.0534	2.82	0.06	10.00	-20.00	7.326	5.22946	7.25138	18.9
7.7488	87.0534	2.82	0.06	10.00	-20.00	7.326	5.22693	7.25321	26.9
7.7688	87.0534	2.82	0.06	10.00	-20.00	7.326	5.22439	7.25503	38.5
7.7888	87.0534	2.82	0.06	10.00	-20.00	7.326	5.22186	7.25686	53.3
7.8088	87.0534	2.82	0.06	10.00	-20.00	7.326	5.21933	7.25868	73.3
7.8288	87.0534	2.82	0.06	10.00	-20.00	7.326	5.21679	7.26050	100.5
7.8488	87.0534	2.82	0.06	10.00	-20.00	7.326	5.21426	7.26232	134.9
7.8688	87.0534	2.82	0.06	10.00	-20.00	7.326	5.21172	7.26414	176.1
7.8888	87.0534	2.82	0.06	10.00	-20.00	7.326	5.20919	7.26596	224.2
7.9088	87.0534	2.82	0.06	10.00	-20.00	7.326	5.20665	7.26778	275.1
7.9288	87.0534	2.82	0.06	10.00	-20.00	7.326	5.20411	7.26959	326.4
7.9488	87.0534	2.82	0.06	10.00	-20.00	7.326	5.20158	7.27141	381.1
7.9688	87.0534	2.82	0.06	10.00	-20.00	7.326	5.19904	7.27322	437.5
7.9888	87.0534	2.82	0.06	10.00	-20.00	7.326	5.19650	7.27504	480.7
8.0088	87.0534	2.82	0.06	10.00	-20.00	7.326	5.19396	7.27685	526.2
8.0288	87.0534	2.82	0.06	10.00	-20.00	7.326	5.19142	7.27867	560.0
8.0488	87.0534	2.82	0.06	10.00	-20.00	7.326	5.18888	7.28048	619.3
8.0688	87.0534	2.82	0.06	10.00	-20.00	7.326	5.18634	7.28229	1508.1
8.0888	87.0534	2.82	0.06	10.00	-20.00	7.326	5.18379	7.28410	984.1
8.1088	87.0534	2.82	0.06	10.00	-20.00	7.326	5.18125	7.28591	606.0
8.1288	87.0534	2.82	0.06	10.00	-20.00	7.326	5.17871	7.28771	497.5
8.1488	87.0534	2.82	0.06	10.00	-20.00	7.326	5.17616	7.28952	425.2
8.1688	87.0534	2.82	0.06	10.00	-20.00	7.326	5.17362	7.29133	364.6
8.1888	87.0534	2.82	0.06	10.00	-20.00	7.326	5.17107	7.29313	304.3
8.2088	87.0534	2.82	0.06	10.00	-20.00	7.326	5.16853	7.29494	249.0
8.2288	87.0534	2.82	0.06	10.00	-20.00	7.326	5.16598	7.29674	205.4
8.2488	87.0534	2.82	0.06	10.00	-20.00	7.326	5.16343	7.29854	162.6
8.2688	87.0534	2.82	0.06	10.00	-20.00	7.326	5.16088	7.30035	127.2
8.2888	87.0534	2.82	0.06	10.00	-20.00	7.326	5.15834	7.30215	96.6
8.3088	87.0534	2.82	0.06	10.00	-20.00	7.326	5.15579	7.30395	73.0
8.3288	87.0534	2.82	0.06	10.00	-20.00	7.326	5.15324	7.30575	55.4
8.3488	87.0534	2.82	0.06	10.00	-20.00	7.326	5.15069	7.30755	41.6
8.3688	87.0534	2.82	0.06	10.00	-20.00	7.326	5.14814	7.30934	31.3
8.3888	87.0534	2.82	0.06	10.00	-20.00	7.326	5.14558	7.31114	22.4
8.4088	87.0534	2.82	0.06	10.00	-20.00	7.326	5.14303	7.31294	16.2
8.4288	87.0534	2.82	0.06	10.00	-20.00	7.326	5.14048	7.31473	11.4
8.4488	87.0534	2.82	0.06	10.00	-20.00	7.326	5.13792	7.31652	8.2
8.4688	87.0534	2.82	0.06	10.00	-20.00	7.326	5.13537	7.31832	6.4
8.4888	87.0534	2.82	0.06	10.00	-20.00	7.326	5.13282	7.32011	5.1
8.5088	87.0534	2.82	0.06	10.00	-20.00	7.326	5.13026	7.32190	4.2
8.5288	87.0534	2.82	0.06	10.00	-20.00	7.326	5.12770	7.32369	3.6
8.5488	87.0534	2.82	0.06	10.00	-20.00	7.326	5.12515	7.32548	3.3
8.5688	87.0534	2.82	0.06	10.00	-20.00	7.326	5.12259	7.32727	2.5
8.5888	87.0534	2.82	0.06	10.00	-20.00	7.326	5.12003	7.32906	2.7
8.6088	87.0534	2.82	0.06	10.00	-20.00	7.326	5.11747	7.33084	2.4
8.6288	87.0534	2.82	0.06	10.00	-20.00	7.326	5.11491	7.33263	2.4
8.6488	87.0534	2.82	0.06	10.00	-20.00	7.326	5.11235	7.33441	2.5
8.6688	87.0534	2.82	0.06	10.00	-20.00	7.326	5.10979	7.33620	2.3
8.6888	87.0534	2.82	0.06	10.00	-20.00	7.326	5.10723	7.33798	1.9
8.7088	87.0534	2.82	0.06	10.00	-20.00	7.326	5.10467	7.33976	1.8
8.7288	87.0534	2.82	0.06	10.00	-20.00	7.326	5.10211	7.34155	1.8
8.7488	87.0534	2.82	0.06	10.00	-20.00	7.326	5.09954	7.34333	2.1
8.7688	87.0534	2.82	0.06	10.00	-20.00	7.326	5.09698	7.34511	2.1
8.7888	87.0534	2.82	0.06	10.00	-20.00	7.326	5.09442	7.34688	2.0
8.8088	87.0534	2.82	0.06	10.00	-20.00	7.326	5.09185	7.34866	1.8
8.8288	87.0534	2.82	0.06	10.00	-20.00	7.326	5.08929	7.35044	1.9
8.8488	87.0534	2.82	0.06	10.00	-20.00	7.326	5.08672	7.35222	1.9
8.8688	87.0534	2.82	0.06	10.00	-20.00	7.326	5.08415	7.35399	1.9
8.8888	87.0534	2.82	0.06	10.00	-20.00	7.326	5.08159	7.35576	1.6
8.9088	87.0534	2.82	0.06	10.00	-20.00	7.326	5.07902	7.35754	1.6
8.9288	87.0534	2.82	0.06	10.00	-20.00	7.326	5.07645	7.35931	2.1
8.9488	87.0534	2.82	0.06	10.00	-20.00	7.326	5.07388	7.36108	1.7
8.9688	87.0534	2.82	0.06	10.00	-20.00	7.326	5.07131	7.36285	1.9
8.9888	87.0534	2.82	0.06	10.00	-20.00	7.326	5.06874	7.36462	1.7
9.0088	87.0534	2.82	0.06	10.00	-20.00	7.326	5.06617	7.36639	1.7
9.0288	87.0534	2.82	0.06	10.00	-20.00	7.326	5.06360	7.36816	1.5
9.0488	87.0534	2.82	0.06	10.00	-20.00	7.326	5.06103	7.36993	1.6
9.0281	86.6259	2.81	0.06	9.95	-19.90	7.289	5.03351	7.33532	1.4

File: 2.0deg-2.0deg-rsm-3h10mins_11371-annealed_224_w-scans_w_000-198.dat
# filename: 2.0deg-2.0deg-rsm-3h10mins_11371-annealed_224_w-scans.dat
# reflection: (004)
# type: Projection of 198 omega (rotated)  scans
# x-axis: omega
#
# Omega	2Theta	Phi  	Chi   	X    	Y    	Z    	q_para	q_perp	Intensity
# [deg]	[deg] 	[deg]	[deg] 	[mm] 	[mm] 	[mm] 	[nm-1]	[nm-1]	[counts/s]
7.4678	87.0332	-0.92	0.32	0.00	17.53	7.303	5.26019	7.22707	1.1
7.4878	87.0332	-0.92	0.32	0.00	17.53	7.303	5.25766	7.22891	1.3
7.5078	87.0332	-0.92	0.32	0.00	17.53	7.303	5.25514	7.23074	1.2
7.5278	87.0332	-0.92	0.32	0.00	17.53	7.303	5.25262	7.23258	1.2
7.5478	87.0332	-0.92	0.32	0.00	17.53	7.303	5.25009	7.23441	1.3
7.5678	87.0332	-0.92	0.32	0.00	17.53	7.303	5.24756	7.23624	1.3
7.5878	87.0332	-0.92	0.32	0.00	17.53	7.303	5.24504	7.23807	1.3
7.6078	87.0332	-0.92	0.32	0.00	17.53	7.303	5.24251	7.23990	1.1
7.6278	87.0332	-0.92	0.32	0.00	17.53	7.303	5.23998	7.24173	1.2
7.6478	87.0332	-0.92	0.32	0.00	17.53	7.303	5.23746	7.24356	1.3
7.6678	87.0332	-0.92	0.32	0.00	17.53	7.303	5.23493	7.24539	1.6
7.6878	87.0332	-0.92	0.32	0.00	17.53	7.303	5.23240	7.24722	1.4
7.7078	87.0332	-0.92	0.32	0.00	17.53	7.303	5.22987	7.24904	1.6
7.7278	87.0332	-0.92	0.32	0.00	17.53	7.303	5.22734	7.25087	1.6
7.7478	87.0332	-0.92	0.32	0.00	17.53	7.303	5.22481	7.25269	1.6
7.7678	87.0332	-0.92	0.32	0.00	17.53	7.303	5.22227	7.25452	1.6
7.7878	87.0332	-0.92	0.32	0.00	17.53	7.303	5.21974	7.25634	1.5
7.8078	87.0332	-0.92	0.32	0.00	17.53	7.303	5.21721	7.25816	2.1
7.8278	87.0332	-0.92	0.32	0.00	17.53	7.303	5.21467	7.25998	1.9
7.8478	87.0332	-0.92	0.32	0.00	17.53	7.303	5.21214	7.26180	2.1
7.8678	87.0332	-0.92	0.32	0.00	17.53	7.303	5.20960	7.26362	2.0
7.8878	87.0332	-0.92	0.32	0.00	17.53	7.303	5.20707	7.26544	2.4
7.9078	87.0332	-0.92	0.32	0.00	17.53	7.303	5.20453	7.26725	2.4
7.9278	87.0332	-0.92	0.32	0.00	17.53	7.303	5.20199	7.26907	2.6
7.9478	87.0332	-0.92	0.32	0.00	17.53	7.303	5.19946	7.27089	2.7
7.9678	87.0332	-0.92	0.32	0.00	17.53	7.303	5.19692	7.27270	3.5
7.9878	87.0332	-0.92	0.32	0.00	17.53	7.303	5.19438	7.27451	3.8
8.0078	87.0332	-0.92	0.32	0.00	17.53	7.303	5.19184	7.27633	4.1
8.0278	87.0332	-0.92	0.32	0.00	17.53	7.303	5.18930	7.27814	5.1
8.0478	87.0332	-0.92	0.32	0.00	17.53	7.303	5.18676	7.27995	7.5
8.0678	87.0332	-0.92	0.32	0.00	17.53	7.303	5.18422	7.28176	9.9
8.0878	87.0332	-0.92	0.32	0.00	17.53	7.303	5.18168	7.28357	14.9
8.1078	87.0332	-0.92	0.32	0.00	17.53	7.303	5.17913	7.28538	21.2
8.1278	87.0332	-0.92	0.32	0.00	17.53	7.303	5.17659	7.28718	29.9
8.1478	87.0332	-0.92	0.32	0.00	17.53	7.303	5.17405	7.28899	43.0
8.1678	87.0332	-0.92	0.32	0.00	17.53	7.303	5.17150	7.29080	61.6
8.1878	87.0332	-0.92	0.32	0.00	17.53	7.303	5.16895	7.29260	85.3
8.2078	87.0332	-0.92	0.32	0.00	17.53	7.303	5.16641	7.29441	115.5
8.2278	87.0332	-0.92	0.32	0.00	17.53	7.303	5.16386	7.29621	153.8
8.2478	87.0332	-0.92	0.32	0.00	17.53	7.303	5.16132	7.29801	202.8
8.2678	87.0332	-0.92	0.32	0.00	17.53	7.303	5.15877	7.29981	253.4
8.2878	87.0332	-0.92	0.32	0.00	17.53	7.303	5.15622	7.30161	318.1
8.3078	87.0332	-0.92	0.32	0.00	17.53	7.303	5.15367	7.30341	379.4
8.3278	87.0332	-0.92	0.32	0.00	17.53	7.303	5.15112	7.30521	453.8
8.3478	87.0332	-0.92	0.32	0.00	17.53	7.303	5.14857	7.30701	531.1
8.3678	87.0332	-0.92	0.32	0.00	17.53	7.303	5.14602	7.30880	598.3
8.3878	87.0332	-0.92	0.32	0.00	17.53	7.303	5.14347	7.31060	667.5
8.4078	87.0332	-0.92	0.32	0.00	17.53	7.303	5.14092	7.31239	721.1
8.4278	87.0332	-0.92	0.32	0.00	17.53	7.303	5.13836	7.31419	877.4
8.4478	87.0332	-0.92	0.32	0.00	17.53	7.303	5.13581	7.31598	1202.1
8.4678	87.0332	-0.92	0.32	0.00	17.53	7.303	5.13326	7.31777	1373.0
8.4878	87.0332	-0.92	0.32	0.00	17.53	7.303	5.13070	7.31957	1240.0
8.5078	87.0332	-0.92	0.32	0.00	17.53	7.303	5.12815	7.32136	850.1
8.5278	87.0332	-0.92	0.32	0.00	17.53	7.303	5.12559	7.32315	505.6
8.5478	87.0332	-0.92	0.32	0.00	17.53	7.303	5.12303	7.32493	382.5
8.5678	87.0332	-0.92	0.32	0.00	17.53	7.303	5.12048	7.32672	295.2
8.5878	87.0332	-0.92	0.32	0.00	17.53	7.303	5.11792	7.32851	224.3
8.6078	87.0332	-0.92	0.32	0.00	17.53	7.303	5.11536	7.33030	172.6
8.6278	87.0332	-0.92	0.32	0.00	17.53	7.303	5.11280	7.33208	128.7
8.6478	87.0332	-0.92	0.32	0.00	17.53	7.303	5.11024	7.33386	95.1
8.6678	87.0332	-0.92	0.32	0.00	17.53	7.303	5.10768	7.33565	69.3
8.6878	87.0332	-0.92	0.32	0.00	17.53	7.303	5.10512	7.33743	50.8
8.7078	87.0332	-0.92	0.32	0.00	17.53	7.303	5.10256	7.33921	36.0
8.7278	87.0332	-0.92	0.32	0.00	17.53	7.303	5.10000	7.34099	26.0
8.7478	87.0332	-0.92	0.32	0.00	17.53	7.303	5.09743	7.34277	20.5
8.7678	87.0332	-0.92	0.32	0.00	17.53	7.303	5.09487	7.34455	15.0
8.7878	87.0332	-0.92	0.32	0.00	17.53	7.303	5.09230	7.34633	11.0
8.8078	87.0332	-0.92	0.32	0.00	17.53	7.303	5.08974	7.34811	9.0
8.8278	87.0332	-0.92	0.32	0.00	17.53	7.303	5.08718	7.34988	7.1
8.8478	87.0332	-0.92	0.32	0.00	17.53	7.303	5.08461	7.35166	6.9
8.8678	87.0332	-0.92	0.32	0.00	17.53	7.303	5.08204	7.35343	6.9
8.8878	87.0332	-0.92	0.32	0.00	17.53	7.303	5.07948	7.35521	7.6
8.9078	87.0332	-0.92	0.32	0.00	17.53	7.303	5.07691	7.35698	7.3
8.9278	87.0332	-0.92	0.32	0.00	17.53	7.303	5.07434	7.35875	5.6
8.9478	87.0332	-0.92	0.32	0.00	17.53	7.303	5.07177	7.36052	4.1
8.9678	87.0332	-0.92	0.32	0.00	17.53	7.303	5.06920	7.36229	3.1
8.9878	87.0332	-0.92	0.32	0.00	17.53	7.303	5.06663	7.36406	2.6
9.0078	87.0332	-0.92	0.32	0.00	17.53	7.303	5.06406	7.36583	1.8
9.0278	87.0332	-0.92	0.32	0.00	17.53	7.303	5.06149	7.36760	2.0
9.0478	87.0332	-0.92	0.32	0.00	17.53	7.303	5.05892	7.36936	2.1
9.0678	87.0332	-0.92	0.32	0.00	17.53	7.303	5.05634	7.37113	1.6
9.0878	87.0332	-0.92	0.32	0.00	17.53	7.303	5.05377	7.37289	1.7
9.1078	87.0332	-0.92	0.32	0.00	17.53	7.303	5.05120	7.37466	1.8
9.1278	87.0332	-0.92	0.32	0.00	17.53	7.303	5.04862	7.37642	1.8
9.1478	87.0332	-0.92	0.32	0.00	17.53	7.303	5.04605	7.37818	1.7
9.1678	87.0332	-0.92	0.32	0.00	17.53	7.303	5.04347	7.37994	1.8
9.1878	87.0332	-0.92	0.32	0.00	17.53	7.303	5.04089	7.38170	1.9
9.2078	87.0332	-0.92	0.32	0.00	17.53	7.303	5.03832	7.38346	1.5
9.2278	87.0332	-0.92	0.32	0.00	17.53	7.303	5.03574	7.38522	1.8
9.2478	87.0332	-0.92	0.32	0.00	17.53	7.303	5.03316	7.38698	1.5
9.2678	87.0332	-0.92	0.32	0.00	17.53	7.303	5.03058	7.38873	1.6
9.2878	87.0332	-0.92	0.32	0.00	17.53	7.303	5.02800	7.39049	1.7
9.3078	87.0332	-0.92	0.32	0.00	17.53	7.303	5.02542	7.39224	1.5
9.3278	87.0332	-0.92	0.32	0.00	17.53	7.303	5.02284	7.39400	1.4
9.3478	87.0332	-0.92	0.32	0.00	17.53	7.303	5.02026	7.39575	1.5
9.3678	87.0332	-0.92	0.32	0.00	17.53	7.303	5.01768	7.39750	1.6
9.3878	87.0332	-0.92	0.32	0.00	17.53	7.303	5.01510	7.39925	1.6
9.4078	87.0332	-0.92	0.32	0.00	17.53	7.303	5.01251	7.40100	1.6
9.4278	87.0332	-0.92	0.32	0.00	17.53	7.303	5.00993	7.40275	1.9
9.4478	87.0332	-0.92	0.32	0.00	17.53	7.303	5.00735	7.40450	1.4
9.4251	86.6058	-0.92	0.32	0.00	17.44	7.266	4.98008	7.36970	1.4