Folder: Thesis_XRD/Data/113xx/Projected_0-200 (part 3)

File: 1.5deg-2.0deg-rsm-2h30mins_11358-as-grown_004_w-scans_w_000-148.dat
# filename: 1.5deg-2.0deg-rsm-2h30mins_11358-as-grown_004_w-scans.dat
# reflection: (004)
# type: Projection of 148 omega (rotated)  scans
# x-axis: omega
#
# Omega	2Theta	Phi  	Chi   	X    	Y    	Z    	q_para	q_perp	Intensity
# [deg]	[deg] 	[deg]	[deg] 	[mm] 	[mm] 	[mm] 	[nm-1]	[nm-1]	[counts/s]
32.8895	68.1496	2.82	-0.23	10.00	-20.00	7.326	0.15045	7.27188	1.2
32.9095	68.1496	2.82	-0.23	10.00	-20.00	7.326	0.14792	7.27193	1.5
32.9295	68.1496	2.82	-0.23	10.00	-20.00	7.326	0.14538	7.27198	1.4
32.9495	68.1496	2.82	-0.23	10.00	-20.00	7.326	0.14284	7.27203	1.1
32.9695	68.1496	2.82	-0.23	10.00	-20.00	7.326	0.14030	7.27208	1.2
32.9895	68.1496	2.82	-0.23	10.00	-20.00	7.326	0.13776	7.27213	1.3
33.0095	68.1496	2.82	-0.23	10.00	-20.00	7.326	0.13522	7.27218	1.1
33.0295	68.1496	2.82	-0.23	10.00	-20.00	7.326	0.13268	7.27223	1.7
33.0495	68.1496	2.82	-0.23	10.00	-20.00	7.326	0.13015	7.27227	1.4
33.0695	68.1496	2.82	-0.23	10.00	-20.00	7.326	0.12761	7.27232	1.6
33.0895	68.1496	2.82	-0.23	10.00	-20.00	7.326	0.12507	7.27236	1.4
33.1095	68.1496	2.82	-0.23	10.00	-20.00	7.326	0.12253	7.27240	1.6
33.1295	68.1496	2.82	-0.23	10.00	-20.00	7.326	0.11999	7.27245	1.3
33.1495	68.1496	2.82	-0.23	10.00	-20.00	7.326	0.11745	7.27249	1.4
33.1695	68.1496	2.82	-0.23	10.00	-20.00	7.326	0.11492	7.27253	1.8
33.1895	68.1496	2.82	-0.23	10.00	-20.00	7.326	0.11238	7.27257	1.3
33.2095	68.1496	2.82	-0.23	10.00	-20.00	7.326	0.10984	7.27261	1.7
33.2295	68.1496	2.82	-0.23	10.00	-20.00	7.326	0.10730	7.27264	1.4
33.2495	68.1496	2.82	-0.23	10.00	-20.00	7.326	0.10476	7.27268	1.8
33.2695	68.1496	2.82	-0.23	10.00	-20.00	7.326	0.10222	7.27272	1.9
33.2895	68.1496	2.82	-0.23	10.00	-20.00	7.326	0.09968	7.27275	2.1
33.3095	68.1496	2.82	-0.23	10.00	-20.00	7.326	0.09714	7.27279	1.9
33.3295	68.1496	2.82	-0.23	10.00	-20.00	7.326	0.09461	7.27282	2.2
33.3495	68.1496	2.82	-0.23	10.00	-20.00	7.326	0.09207	7.27285	2.1
33.3695	68.1496	2.82	-0.23	10.00	-20.00	7.326	0.08953	7.27288	2.3
33.3895	68.1496	2.82	-0.23	10.00	-20.00	7.326	0.08699	7.27292	2.6
33.4095	68.1496	2.82	-0.23	10.00	-20.00	7.326	0.08445	7.27295	2.7
33.4295	68.1496	2.82	-0.23	10.00	-20.00	7.326	0.08191	7.27297	3.2
33.4495	68.1496	2.82	-0.23	10.00	-20.00	7.326	0.07937	7.27300	3.3
33.4695	68.1496	2.82	-0.23	10.00	-20.00	7.326	0.07684	7.27303	4.5
33.4895	68.1496	2.82	-0.23	10.00	-20.00	7.326	0.07430	7.27306	6.7
33.5095	68.1496	2.82	-0.23	10.00	-20.00	7.326	0.07176	7.27308	9.0
33.5295	68.1496	2.82	-0.23	10.00	-20.00	7.326	0.06922	7.27311	13.9
33.5495	68.1496	2.82	-0.23	10.00	-20.00	7.326	0.06668	7.27313	17.9
33.5695	68.1496	2.82	-0.23	10.00	-20.00	7.326	0.06414	7.27315	26.5
33.5895	68.1496	2.82	-0.23	10.00	-20.00	7.326	0.06160	7.27317	38.7
33.6095	68.1496	2.82	-0.23	10.00	-20.00	7.326	0.05906	7.27320	52.9
33.6295	68.1496	2.82	-0.23	10.00	-20.00	7.326	0.05652	7.27322	73.3
33.6495	68.1496	2.82	-0.23	10.00	-20.00	7.326	0.05399	7.27324	103.1
33.6695	68.1496	2.82	-0.23	10.00	-20.00	7.326	0.05145	7.27325	138.3
33.6895	68.1496	2.82	-0.23	10.00	-20.00	7.326	0.04891	7.27327	172.8
33.7095	68.1496	2.82	-0.23	10.00	-20.00	7.326	0.04637	7.27329	224.4
33.7295	68.1496	2.82	-0.23	10.00	-20.00	7.326	0.04383	7.27330	281.1
33.7495	68.1496	2.82	-0.23	10.00	-20.00	7.326	0.04129	7.27332	344.9
33.7695	68.1496	2.82	-0.23	10.00	-20.00	7.326	0.03875	7.27333	415.9
33.7895	68.1496	2.82	-0.23	10.00	-20.00	7.326	0.03621	7.27335	480.5
33.8095	68.1496	2.82	-0.23	10.00	-20.00	7.326	0.03367	7.27336	547.7
33.8295	68.1496	2.82	-0.23	10.00	-20.00	7.326	0.03114	7.27337	613.4
33.8495	68.1496	2.82	-0.23	10.00	-20.00	7.326	0.02860	7.27338	696.5
33.8695	68.1496	2.82	-0.23	10.00	-20.00	7.326	0.02606	7.27339	940.1
33.8895	68.1496	2.82	-0.23	10.00	-20.00	7.326	0.02352	7.27340	6374.3
33.9095	68.1496	2.82	-0.23	10.00	-20.00	7.326	0.02098	7.27341	998.1
33.9295	68.1496	2.82	-0.23	10.00	-20.00	7.326	0.01844	7.27341	683.6
33.9495	68.1496	2.82	-0.23	10.00	-20.00	7.326	0.01590	7.27342	585.3
33.9695	68.1496	2.82	-0.23	10.00	-20.00	7.326	0.01336	7.27342	519.8
33.9895	68.1496	2.82	-0.23	10.00	-20.00	7.326	0.01082	7.27343	459.6
34.0095	68.1496	2.82	-0.23	10.00	-20.00	7.326	0.00829	7.27343	387.3
34.0295	68.1496	2.82	-0.23	10.00	-20.00	7.326	0.00575	7.27343	331.8
34.0495	68.1496	2.82	-0.23	10.00	-20.00	7.326	0.00321	7.27343	276.6
34.0695	68.1496	2.82	-0.23	10.00	-20.00	7.326	0.00067	7.27344	232.7
34.0895	68.1496	2.82	-0.23	10.00	-20.00	7.326	-0.00187	7.27344	183.3
34.1095	68.1496	2.82	-0.23	10.00	-20.00	7.326	-0.00441	7.27343	145.1
34.1295	68.1496	2.82	-0.23	10.00	-20.00	7.326	-0.00695	7.27343	110.3
34.1495	68.1496	2.82	-0.23	10.00	-20.00	7.326	-0.00949	7.27343	82.1
34.1695	68.1496	2.82	-0.23	10.00	-20.00	7.326	-0.01203	7.27343	61.5
34.1895	68.1496	2.82	-0.23	10.00	-20.00	7.326	-0.01456	7.27342	46.1
34.2095	68.1496	2.82	-0.23	10.00	-20.00	7.326	-0.01710	7.27342	34.6
34.2295	68.1496	2.82	-0.23	10.00	-20.00	7.326	-0.01964	7.27341	24.8
34.2495	68.1496	2.82	-0.23	10.00	-20.00	7.326	-0.02218	7.27340	17.2
34.2695	68.1496	2.82	-0.23	10.00	-20.00	7.326	-0.02472	7.27339	12.2
34.2895	68.1496	2.82	-0.23	10.00	-20.00	7.326	-0.02726	7.27338	8.6
34.3095	68.1496	2.82	-0.23	10.00	-20.00	7.326	-0.02980	7.27337	5.9
34.3295	68.1496	2.82	-0.23	10.00	-20.00	7.326	-0.03234	7.27336	4.1
34.3495	68.1496	2.82	-0.23	10.00	-20.00	7.326	-0.03488	7.27335	3.2
34.3695	68.1496	2.82	-0.23	10.00	-20.00	7.326	-0.03741	7.27334	2.7
34.3895	68.1496	2.82	-0.23	10.00	-20.00	7.326	-0.03995	7.27333	2.3
34.4095	68.1496	2.82	-0.23	10.00	-20.00	7.326	-0.04249	7.27331	2.1
34.4295	68.1496	2.82	-0.23	10.00	-20.00	7.326	-0.04503	7.27330	2.1
34.4495	68.1496	2.82	-0.23	10.00	-20.00	7.326	-0.04757	7.27328	1.8
34.4695	68.1496	2.82	-0.23	10.00	-20.00	7.326	-0.05011	7.27326	1.7
34.4895	68.1496	2.82	-0.23	10.00	-20.00	7.326	-0.05265	7.27325	1.7
34.5095	68.1496	2.82	-0.23	10.00	-20.00	7.326	-0.05519	7.27323	1.3
34.5295	68.1496	2.82	-0.23	10.00	-20.00	7.326	-0.05773	7.27321	1.6
34.5495	68.1496	2.82	-0.23	10.00	-20.00	7.326	-0.06026	7.27319	1.5
34.5695	68.1496	2.82	-0.23	10.00	-20.00	7.326	-0.06280	7.27316	1.5
34.5895	68.1496	2.82	-0.23	10.00	-20.00	7.326	-0.06534	7.27314	1.5
34.6095	68.1496	2.82	-0.23	10.00	-20.00	7.326	-0.06788	7.27312	1.4
34.6295	68.1496	2.82	-0.23	10.00	-20.00	7.326	-0.07042	7.27310	1.5
34.6495	68.1496	2.82	-0.23	10.00	-20.00	7.326	-0.07296	7.27307	1.3
34.6695	68.1496	2.82	-0.23	10.00	-20.00	7.326	-0.07550	7.27304	1.3
34.6895	68.1496	2.82	-0.23	10.00	-20.00	7.326	-0.07803	7.27302	1.5
34.7095	68.1496	2.82	-0.23	10.00	-20.00	7.326	-0.08057	7.27299	1.2
34.7295	68.1496	2.82	-0.23	10.00	-20.00	7.326	-0.08311	7.27296	1.3
34.7495	68.1496	2.82	-0.23	10.00	-20.00	7.326	-0.08565	7.27293	1.3
34.7695	68.1496	2.82	-0.23	10.00	-20.00	7.326	-0.08819	7.27290	1.1
34.7895	68.1496	2.82	-0.23	10.00	-20.00	7.326	-0.09073	7.27287	1.2
34.8095	68.1496	2.82	-0.23	10.00	-20.00	7.326	-0.09327	7.27284	1.3
34.8295	68.1496	2.82	-0.23	10.00	-20.00	7.326	-0.09581	7.27280	1.2
34.8495	68.1496	2.82	-0.23	10.00	-20.00	7.326	-0.09835	7.27277	1.3
34.8695	68.1496	2.82	-0.23	10.00	-20.00	7.326	-0.10088	7.27274	1.1
34.6602	67.7022	2.80	-0.23	9.93	-19.87	7.277	-0.10273	7.22483	1.2

File: 1.5deg-2.0deg-rsm-2h30mins_11371-annealed_004_w-scans_w_000-148.dat
# filename: 1.5deg-2.0deg-rsm-2h30mins_11371-annealed_004_w-scans.dat
# reflection: (004)
# type: Projection of 148 omega (rotated)  scans
# x-axis: omega
#
# Omega	2Theta	Phi  	Chi   	X    	Y    	Z    	q_para	q_perp	Intensity
# [deg]	[deg] 	[deg]	[deg] 	[mm] 	[mm] 	[mm] 	[nm-1]	[nm-1]	[counts/s]
33.2543	68.1394	-0.92	-0.92	0.00	17.53	7.303	0.10349	7.27174	1.3
33.2743	68.1394	-0.92	-0.92	0.00	17.53	7.303	0.10095	7.27178	0.8
33.2943	68.1394	-0.92	-0.92	0.00	17.53	7.303	0.09841	7.27181	1.1
33.3143	68.1394	-0.92	-0.92	0.00	17.53	7.303	0.09588	7.27185	1.2
33.3343	68.1394	-0.92	-0.92	0.00	17.53	7.303	0.09334	7.27188	1.2
33.3543	68.1394	-0.92	-0.92	0.00	17.53	7.303	0.09080	7.27191	1.1
33.3743	68.1394	-0.92	-0.92	0.00	17.53	7.303	0.08826	7.27194	1.2
33.3943	68.1394	-0.92	-0.92	0.00	17.53	7.303	0.08572	7.27197	1.2
33.4143	68.1394	-0.92	-0.92	0.00	17.53	7.303	0.08318	7.27200	1.1
33.4343	68.1394	-0.92	-0.92	0.00	17.53	7.303	0.08064	7.27203	1.4
33.4543	68.1394	-0.92	-0.92	0.00	17.53	7.303	0.07811	7.27206	1.4
33.4743	68.1394	-0.92	-0.92	0.00	17.53	7.303	0.07557	7.27209	1.4
33.4943	68.1394	-0.92	-0.92	0.00	17.53	7.303	0.07303	7.27211	1.4
33.5143	68.1394	-0.92	-0.92	0.00	17.53	7.303	0.07049	7.27214	1.5
33.5343	68.1394	-0.92	-0.92	0.00	17.53	7.303	0.06795	7.27216	1.5
33.5543	68.1394	-0.92	-0.92	0.00	17.53	7.303	0.06541	7.27218	1.5
33.5743	68.1394	-0.92	-0.92	0.00	17.53	7.303	0.06288	7.27221	1.4
33.5943	68.1394	-0.92	-0.92	0.00	17.53	7.303	0.06034	7.27223	1.5
33.6143	68.1394	-0.92	-0.92	0.00	17.53	7.303	0.05780	7.27225	1.5
33.6343	68.1394	-0.92	-0.92	0.00	17.53	7.303	0.05526	7.27227	1.9
33.6543	68.1394	-0.92	-0.92	0.00	17.53	7.303	0.05272	7.27229	2.3
33.6743	68.1394	-0.92	-0.92	0.00	17.53	7.303	0.05018	7.27231	2.3
33.6943	68.1394	-0.92	-0.92	0.00	17.53	7.303	0.04764	7.27232	2.2
33.7143	68.1394	-0.92	-0.92	0.00	17.53	7.303	0.04511	7.27234	2.2
33.7343	68.1394	-0.92	-0.92	0.00	17.53	7.303	0.04257	7.27235	2.1
33.7543	68.1394	-0.92	-0.92	0.00	17.53	7.303	0.04003	7.27237	2.3
33.7743	68.1394	-0.92	-0.92	0.00	17.53	7.303	0.03749	7.27238	2.7
33.7943	68.1394	-0.92	-0.92	0.00	17.53	7.303	0.03495	7.27240	3.0
33.8143	68.1394	-0.92	-0.92	0.00	17.53	7.303	0.03241	7.27241	3.7
33.8343	68.1394	-0.92	-0.92	0.00	17.53	7.303	0.02987	7.27242	4.6
33.8543	68.1394	-0.92	-0.92	0.00	17.53	7.303	0.02734	7.27243	6.1
33.8743	68.1394	-0.92	-0.92	0.00	17.53	7.303	0.02480	7.27244	9.2
33.8943	68.1394	-0.92	-0.92	0.00	17.53	7.303	0.02226	7.27245	13.2
33.9143	68.1394	-0.92	-0.92	0.00	17.53	7.303	0.01972	7.27245	19.1
33.9343	68.1394	-0.92	-0.92	0.00	17.53	7.303	0.01718	7.27246	29.1
33.9543	68.1394	-0.92	-0.92	0.00	17.53	7.303	0.01464	7.27246	44.1
33.9743	68.1394	-0.92	-0.92	0.00	17.53	7.303	0.01211	7.27247	63.4
33.9943	68.1394	-0.92	-0.92	0.00	17.53	7.303	0.00957	7.27247	92.0
34.0143	68.1394	-0.92	-0.92	0.00	17.53	7.303	0.00703	7.27248	129.0
34.0343	68.1394	-0.92	-0.92	0.00	17.53	7.303	0.00449	7.27248	176.1
34.0543	68.1394	-0.92	-0.92	0.00	17.53	7.303	0.00195	7.27248	232.8
34.0743	68.1394	-0.92	-0.92	0.00	17.53	7.303	-0.00059	7.27248	301.1
34.0943	68.1394	-0.92	-0.92	0.00	17.53	7.303	-0.00313	7.27248	381.0
34.1143	68.1394	-0.92	-0.92	0.00	17.53	7.303	-0.00567	7.27248	469.2
34.1343	68.1394	-0.92	-0.92	0.00	17.53	7.303	-0.00820	7.27247	558.3
34.1543	68.1394	-0.92	-0.92	0.00	17.53	7.303	-0.01074	7.27247	647.4
34.1743	68.1394	-0.92	-0.92	0.00	17.53	7.303	-0.01328	7.27247	734.9
34.1943	68.1394	-0.92	-0.92	0.00	17.53	7.303	-0.01582	7.27246	805.3
34.2143	68.1394	-0.92	-0.92	0.00	17.53	7.303	-0.01836	7.27246	911.8
34.2343	68.1394	-0.92	-0.92	0.00	17.53	7.303	-0.02090	7.27245	2058.6
34.2543	68.1394	-0.92	-0.92	0.00	17.53	7.303	-0.02344	7.27244	3604.8
34.2743	68.1394	-0.92	-0.92	0.00	17.53	7.303	-0.02597	7.27243	1311.6
34.2943	68.1394	-0.92	-0.92	0.00	17.53	7.303	-0.02851	7.27242	564.8
34.3143	68.1394	-0.92	-0.92	0.00	17.53	7.303	-0.03105	7.27241	413.8
34.3343	68.1394	-0.92	-0.92	0.00	17.53	7.303	-0.03359	7.27240	305.2
34.3543	68.1394	-0.92	-0.92	0.00	17.53	7.303	-0.03613	7.27239	221.5
34.3743	68.1394	-0.92	-0.92	0.00	17.53	7.303	-0.03867	7.27238	159.9
34.3943	68.1394	-0.92	-0.92	0.00	17.53	7.303	-0.04120	7.27236	118.6
34.4143	68.1394	-0.92	-0.92	0.00	17.53	7.303	-0.04374	7.27235	83.5
34.4343	68.1394	-0.92	-0.92	0.00	17.53	7.303	-0.04628	7.27233	58.3
34.4543	68.1394	-0.92	-0.92	0.00	17.53	7.303	-0.04882	7.27232	41.1
34.4743	68.1394	-0.92	-0.92	0.00	17.53	7.303	-0.05136	7.27230	30.0
34.4943	68.1394	-0.92	-0.92	0.00	17.53	7.303	-0.05390	7.27228	21.3
34.5143	68.1394	-0.92	-0.92	0.00	17.53	7.303	-0.05644	7.27226	14.1
34.5343	68.1394	-0.92	-0.92	0.00	17.53	7.303	-0.05897	7.27224	9.8
34.5543	68.1394	-0.92	-0.92	0.00	17.53	7.303	-0.06151	7.27222	7.2
34.5743	68.1394	-0.92	-0.92	0.00	17.53	7.303	-0.06405	7.27220	5.0
34.5943	68.1394	-0.92	-0.92	0.00	17.53	7.303	-0.06659	7.27217	4.0
34.6143	68.1394	-0.92	-0.92	0.00	17.53	7.303	-0.06913	7.27215	3.4
34.6343	68.1394	-0.92	-0.92	0.00	17.53	7.303	-0.07167	7.27213	2.6
34.6543	68.1394	-0.92	-0.92	0.00	17.53	7.303	-0.07421	7.27210	2.4
34.6743	68.1394	-0.92	-0.92	0.00	17.53	7.303	-0.07674	7.27207	2.4
34.6943	68.1394	-0.92	-0.92	0.00	17.53	7.303	-0.07928	7.27205	1.9
34.7143	68.1394	-0.92	-0.92	0.00	17.53	7.303	-0.08182	7.27202	2.1
34.7343	68.1394	-0.92	-0.92	0.00	17.53	7.303	-0.08436	7.27199	2.1
34.7543	68.1394	-0.92	-0.92	0.00	17.53	7.303	-0.08690	7.27196	1.9
34.7743	68.1394	-0.92	-0.92	0.00	17.53	7.303	-0.08944	7.27193	1.7
34.7943	68.1394	-0.92	-0.92	0.00	17.53	7.303	-0.09197	7.27190	1.6
34.8143	68.1394	-0.92	-0.92	0.00	17.53	7.303	-0.09451	7.27186	1.8
34.8343	68.1394	-0.92	-0.92	0.00	17.53	7.303	-0.09705	7.27183	1.7
34.8543	68.1394	-0.92	-0.92	0.00	17.53	7.303	-0.09959	7.27180	1.8
34.8743	68.1394	-0.92	-0.92	0.00	17.53	7.303	-0.10213	7.27176	1.6
34.8943	68.1394	-0.92	-0.92	0.00	17.53	7.303	-0.10467	7.27173	1.3
34.9143	68.1394	-0.92	-0.92	0.00	17.53	7.303	-0.10720	7.27169	1.4
34.9343	68.1394	-0.92	-0.92	0.00	17.53	7.303	-0.10974	7.27165	1.7
34.9543	68.1394	-0.92	-0.92	0.00	17.53	7.303	-0.11228	7.27161	1.6
34.9743	68.1394	-0.92	-0.92	0.00	17.53	7.303	-0.11482	7.27157	1.3
34.9943	68.1394	-0.92	-0.92	0.00	17.53	7.303	-0.11736	7.27153	1.3
35.0143	68.1394	-0.92	-0.92	0.00	17.53	7.303	-0.11990	7.27149	1.2
35.0343	68.1394	-0.92	-0.92	0.00	17.53	7.303	-0.12243	7.27145	1.2
35.0543	68.1394	-0.92	-0.92	0.00	17.53	7.303	-0.12497	7.27140	1.3
35.0743	68.1394	-0.92	-0.92	0.00	17.53	7.303	-0.12751	7.27136	1.2
35.0943	68.1394	-0.92	-0.92	0.00	17.53	7.303	-0.13005	7.27132	1.1
35.1143	68.1394	-0.92	-0.92	0.00	17.53	7.303	-0.13259	7.27127	1.2
35.1343	68.1394	-0.92	-0.92	0.00	17.53	7.303	-0.13512	7.27122	1.4
35.1543	68.1394	-0.92	-0.92	0.00	17.53	7.303	-0.13766	7.27118	1.1
35.1743	68.1394	-0.92	-0.92	0.00	17.53	7.303	-0.14020	7.27113	1.1
35.1943	68.1394	-0.92	-0.92	0.00	17.53	7.303	-0.14274	7.27108	0.9
35.2143	68.1394	-0.92	-0.92	0.00	17.53	7.303	-0.14528	7.27103	1.3
35.2343	68.1394	-0.92	-0.92	0.00	17.53	7.303	-0.14781	7.27098	1.1
35.0226	67.6920	-0.91	-0.91	0.00	17.41	7.254	-0.14935	7.22306	1.1

File: 1.5deg-2.0deg-rsm-2h30mins_11371-as-grown_004_w-scans_w_000-148.dat
# filename: 1.5deg-2.0deg-rsm-2h30mins_11371-as-grown_004_w-scans.dat
# reflection: (004)
# type: Projection of 148 omega (rotated)  scans
# x-axis: omega
#
# Omega	2Theta	Phi  	Chi   	X    	Y    	Z    	q_para	q_perp	Intensity
# [deg]	[deg] 	[deg]	[deg] 	[mm] 	[mm] 	[mm] 	[nm-1]	[nm-1]	[counts/s]
33.4528	68.6540	0.79	0.03	5.00	5.00	7.412	0.11169	7.31984	1.1
33.4728	68.6540	0.79	0.03	5.00	5.00	7.412	0.10913	7.31988	1.3
33.4928	68.6540	0.79	0.03	5.00	5.00	7.412	0.10658	7.31992	1.3
33.5128	68.6540	0.79	0.03	5.00	5.00	7.412	0.10402	7.31996	1.4
33.5328	68.6540	0.79	0.03	5.00	5.00	7.412	0.10147	7.31999	1.5
33.5528	68.6540	0.79	0.03	5.00	5.00	7.412	0.09891	7.32003	1.5
33.5728	68.6540	0.79	0.03	5.00	5.00	7.412	0.09636	7.32006	1.6
33.5928	68.6540	0.79	0.03	5.00	5.00	7.412	0.09380	7.32010	1.6
33.6128	68.6540	0.79	0.03	5.00	5.00	7.412	0.09125	7.32013	1.8
33.6328	68.6540	0.79	0.03	5.00	5.00	7.412	0.08869	7.32016	1.4
33.6528	68.6540	0.79	0.03	5.00	5.00	7.412	0.08614	7.32019	1.6
33.6728	68.6540	0.79	0.03	5.00	5.00	7.412	0.08358	7.32022	1.7
33.6928	68.6540	0.79	0.03	5.00	5.00	7.412	0.08103	7.32025	1.6
33.7128	68.6540	0.79	0.03	5.00	5.00	7.412	0.07847	7.32028	1.7
33.7328	68.6540	0.79	0.03	5.00	5.00	7.412	0.07592	7.32030	1.6
33.7528	68.6540	0.79	0.03	5.00	5.00	7.412	0.07336	7.32033	1.9
33.7728	68.6540	0.79	0.03	5.00	5.00	7.412	0.07081	7.32035	1.8
33.7928	68.6540	0.79	0.03	5.00	5.00	7.412	0.06825	7.32038	1.9
33.8128	68.6540	0.79	0.03	5.00	5.00	7.412	0.06569	7.32040	1.6
33.8328	68.6540	0.79	0.03	5.00	5.00	7.412	0.06314	7.32042	2.0
33.8528	68.6540	0.79	0.03	5.00	5.00	7.412	0.06058	7.32045	2.4
33.8728	68.6540	0.79	0.03	5.00	5.00	7.412	0.05803	7.32047	3.2
33.8928	68.6540	0.79	0.03	5.00	5.00	7.412	0.05547	7.32049	2.8
33.9128	68.6540	0.79	0.03	5.00	5.00	7.412	0.05292	7.32051	2.6
33.9328	68.6540	0.79	0.03	5.00	5.00	7.412	0.05036	7.32052	2.4
33.9528	68.6540	0.79	0.03	5.00	5.00	7.412	0.04781	7.32054	2.8
33.9728	68.6540	0.79	0.03	5.00	5.00	7.412	0.04525	7.32056	3.0
33.9928	68.6540	0.79	0.03	5.00	5.00	7.412	0.04270	7.32057	3.1
34.0128	68.6540	0.79	0.03	5.00	5.00	7.412	0.04014	7.32059	3.7
34.0328	68.6540	0.79	0.03	5.00	5.00	7.412	0.03759	7.32060	4.7
34.0528	68.6540	0.79	0.03	5.00	5.00	7.412	0.03503	7.32061	6.4
34.0728	68.6540	0.79	0.03	5.00	5.00	7.412	0.03247	7.32062	8.1
34.0928	68.6540	0.79	0.03	5.00	5.00	7.412	0.02992	7.32064	11.6
34.1128	68.6540	0.79	0.03	5.00	5.00	7.412	0.02736	7.32065	16.8
34.1328	68.6540	0.79	0.03	5.00	5.00	7.412	0.02481	7.32065	27.6
34.1528	68.6540	0.79	0.03	5.00	5.00	7.412	0.02225	7.32066	38.2
34.1728	68.6540	0.79	0.03	5.00	5.00	7.412	0.01970	7.32067	55.7
34.1928	68.6540	0.79	0.03	5.00	5.00	7.412	0.01714	7.32068	78.3
34.2128	68.6540	0.79	0.03	5.00	5.00	7.412	0.01459	7.32068	112.0
34.2328	68.6540	0.79	0.03	5.00	5.00	7.412	0.01203	7.32069	157.9
34.2528	68.6540	0.79	0.03	5.00	5.00	7.412	0.00948	7.32069	211.3
34.2728	68.6540	0.79	0.03	5.00	5.00	7.412	0.00692	7.32069	271.4
34.2928	68.6540	0.79	0.03	5.00	5.00	7.412	0.00437	7.32070	351.7
34.3128	68.6540	0.79	0.03	5.00	5.00	7.412	0.00181	7.32070	438.5
34.3328	68.6540	0.79	0.03	5.00	5.00	7.412	-0.00075	7.32070	528.5
34.3528	68.6540	0.79	0.03	5.00	5.00	7.412	-0.00330	7.32070	624.6
34.3728	68.6540	0.79	0.03	5.00	5.00	7.412	-0.00586	7.32069	728.3
34.3928	68.6540	0.79	0.03	5.00	5.00	7.412	-0.00841	7.32069	844.3
34.4128	68.6540	0.79	0.03	5.00	5.00	7.412	-0.01097	7.32069	978.6
34.4328	68.6540	0.79	0.03	5.00	5.00	7.412	-0.01352	7.32068	1827.0
34.4528	68.6540	0.79	0.03	5.00	5.00	7.412	-0.01608	7.32068	3967.6
34.4728	68.6540	0.79	0.03	5.00	5.00	7.412	-0.01863	7.32067	2450.7
34.4928	68.6540	0.79	0.03	5.00	5.00	7.412	-0.02119	7.32067	1000.8
34.5128	68.6540	0.79	0.03	5.00	5.00	7.412	-0.02374	7.32066	789.6
34.5328	68.6540	0.79	0.03	5.00	5.00	7.412	-0.02630	7.32065	655.5
34.5528	68.6540	0.79	0.03	5.00	5.00	7.412	-0.02885	7.32064	538.5
34.5728	68.6540	0.79	0.03	5.00	5.00	7.412	-0.03141	7.32063	446.2
34.5928	68.6540	0.79	0.03	5.00	5.00	7.412	-0.03397	7.32062	353.0
34.6128	68.6540	0.79	0.03	5.00	5.00	7.412	-0.03652	7.32061	272.1
34.6328	68.6540	0.79	0.03	5.00	5.00	7.412	-0.03908	7.32059	212.6
34.6528	68.6540	0.79	0.03	5.00	5.00	7.412	-0.04163	7.32058	159.0
34.6728	68.6540	0.79	0.03	5.00	5.00	7.412	-0.04419	7.32056	114.6
34.6928	68.6540	0.79	0.03	5.00	5.00	7.412	-0.04674	7.32055	82.9
34.7128	68.6540	0.79	0.03	5.00	5.00	7.412	-0.04930	7.32053	57.6
34.7328	68.6540	0.79	0.03	5.00	5.00	7.412	-0.05185	7.32051	41.1
34.7528	68.6540	0.79	0.03	5.00	5.00	7.412	-0.05441	7.32049	26.2
34.7728	68.6540	0.79	0.03	5.00	5.00	7.412	-0.05696	7.32048	17.9
34.7928	68.6540	0.79	0.03	5.00	5.00	7.412	-0.05952	7.32046	11.4
34.8128	68.6540	0.79	0.03	5.00	5.00	7.412	-0.06207	7.32043	8.7
34.8328	68.6540	0.79	0.03	5.00	5.00	7.412	-0.06463	7.32041	5.9
34.8528	68.6540	0.79	0.03	5.00	5.00	7.412	-0.06718	7.32039	4.7
34.8728	68.6540	0.79	0.03	5.00	5.00	7.412	-0.06974	7.32036	3.9
34.8928	68.6540	0.79	0.03	5.00	5.00	7.412	-0.07230	7.32034	3.2
34.9128	68.6540	0.79	0.03	5.00	5.00	7.412	-0.07485	7.32031	3.4
34.9328	68.6540	0.79	0.03	5.00	5.00	7.412	-0.07741	7.32029	3.2
34.9528	68.6540	0.79	0.03	5.00	5.00	7.412	-0.07996	7.32026	2.4
34.9728	68.6540	0.79	0.03	5.00	5.00	7.412	-0.08252	7.32023	2.6
34.9928	68.6540	0.79	0.03	5.00	5.00	7.412	-0.08507	7.32020	2.4
35.0128	68.6540	0.79	0.03	5.00	5.00	7.412	-0.08763	7.32017	2.7
35.0328	68.6540	0.79	0.03	5.00	5.00	7.412	-0.09018	7.32014	2.6
35.0528	68.6540	0.79	0.03	5.00	5.00	7.412	-0.09274	7.32011	2.4
35.0728	68.6540	0.79	0.03	5.00	5.00	7.412	-0.09529	7.32008	2.0
35.0928	68.6540	0.79	0.03	5.00	5.00	7.412	-0.09785	7.32004	2.2
35.1128	68.6540	0.79	0.03	5.00	5.00	7.412	-0.10040	7.32001	1.9
35.1328	68.6540	0.79	0.03	5.00	5.00	7.412	-0.10296	7.31997	1.7
35.1528	68.6540	0.79	0.03	5.00	5.00	7.412	-0.10551	7.31994	1.6
35.1728	68.6540	0.79	0.03	5.00	5.00	7.412	-0.10807	7.31990	1.9
35.1928	68.6540	0.79	0.03	5.00	5.00	7.412	-0.11062	7.31986	1.4
35.2128	68.6540	0.79	0.03	5.00	5.00	7.412	-0.11318	7.31982	1.3
35.2328	68.6540	0.79	0.03	5.00	5.00	7.412	-0.11573	7.31978	1.6
35.2528	68.6540	0.79	0.03	5.00	5.00	7.412	-0.11829	7.31974	1.7
35.2728	68.6540	0.79	0.03	5.00	5.00	7.412	-0.12084	7.31970	1.4
35.2928	68.6540	0.79	0.03	5.00	5.00	7.412	-0.12340	7.31966	1.2
35.3128	68.6540	0.79	0.03	5.00	5.00	7.412	-0.12595	7.31961	1.3
35.3328	68.6540	0.79	0.03	5.00	5.00	7.412	-0.12851	7.31957	1.4
35.3528	68.6540	0.79	0.03	5.00	5.00	7.412	-0.13106	7.31952	1.4
35.3728	68.6540	0.79	0.03	5.00	5.00	7.412	-0.13362	7.31948	1.4
35.3928	68.6540	0.79	0.03	5.00	5.00	7.412	-0.13617	7.31943	1.1
35.4128	68.6540	0.79	0.03	5.00	5.00	7.412	-0.13873	7.31938	1.1
35.4328	68.6540	0.79	0.03	5.00	5.00	7.412	-0.14128	7.31933	1.2
35.2197	68.2032	0.78	0.03	4.97	4.97	7.362	-0.14287	7.27109	1.3