Folder: Thesis_XRD/Data/113xx/Projected_0-200

File: 1.5deg-2.0deg-rsm-2h30mins_11352-annealed_004_w-scans_w_000-148.dat
# filename: 1.5deg-2.0deg-rsm-2h30mins_11352-annealed_004_w-scans.dat
# reflection: (004)
# type: Projection of 148 omega (rotated)  scans
# x-axis: omega
#
# Omega	2Theta	Phi  	Chi   	X    	Y    	Z    	q_para	q_perp	Intensity
# [deg]	[deg] 	[deg]	[deg] 	[mm] 	[mm] 	[mm] 	[nm-1]	[nm-1]	[counts/s]
33.3560	68.1476	-1.19	-0.10	0.00	17.51	7.290	0.09111	7.27268	0.9
33.3760	68.1476	-1.19	-0.10	0.00	17.51	7.290	0.08857	7.27271	1.3
33.3960	68.1476	-1.19	-0.10	0.00	17.51	7.290	0.08604	7.27274	1.2
33.4160	68.1476	-1.19	-0.10	0.00	17.51	7.290	0.08350	7.27277	1.0
33.4360	68.1476	-1.19	-0.10	0.00	17.51	7.290	0.08096	7.27280	0.9
33.4560	68.1476	-1.19	-0.10	0.00	17.51	7.290	0.07842	7.27283	0.9
33.4760	68.1476	-1.19	-0.10	0.00	17.51	7.290	0.07588	7.27285	0.9
33.4960	68.1476	-1.19	-0.10	0.00	17.51	7.290	0.07334	7.27288	1.0
33.5160	68.1476	-1.19	-0.10	0.00	17.51	7.290	0.07080	7.27290	1.1
33.5360	68.1476	-1.19	-0.10	0.00	17.51	7.290	0.06826	7.27293	1.2
33.5560	68.1476	-1.19	-0.10	0.00	17.51	7.290	0.06573	7.27295	1.2
33.5760	68.1476	-1.19	-0.10	0.00	17.51	7.290	0.06319	7.27297	1.3
33.5960	68.1476	-1.19	-0.10	0.00	17.51	7.290	0.06065	7.27300	1.0
33.6160	68.1476	-1.19	-0.10	0.00	17.51	7.290	0.05811	7.27302	1.3
33.6360	68.1476	-1.19	-0.10	0.00	17.51	7.290	0.05557	7.27304	1.3
33.6560	68.1476	-1.19	-0.10	0.00	17.51	7.290	0.05303	7.27306	1.1
33.6760	68.1476	-1.19	-0.10	0.00	17.51	7.290	0.05049	7.27307	1.2
33.6960	68.1476	-1.19	-0.10	0.00	17.51	7.290	0.04795	7.27309	1.1
33.7160	68.1476	-1.19	-0.10	0.00	17.51	7.290	0.04542	7.27311	1.2
33.7360	68.1476	-1.19	-0.10	0.00	17.51	7.290	0.04288	7.27312	1.5
33.7560	68.1476	-1.19	-0.10	0.00	17.51	7.290	0.04034	7.27314	1.7
33.7760	68.1476	-1.19	-0.10	0.00	17.51	7.290	0.03780	7.27315	1.7
33.7960	68.1476	-1.19	-0.10	0.00	17.51	7.290	0.03526	7.27316	1.4
33.8160	68.1476	-1.19	-0.10	0.00	17.51	7.290	0.03272	7.27317	1.5
33.8360	68.1476	-1.19	-0.10	0.00	17.51	7.290	0.03018	7.27318	1.7
33.8560	68.1476	-1.19	-0.10	0.00	17.51	7.290	0.02764	7.27320	1.7
33.8760	68.1476	-1.19	-0.10	0.00	17.51	7.290	0.02511	7.27320	1.5
33.8960	68.1476	-1.19	-0.10	0.00	17.51	7.290	0.02257	7.27321	1.6
33.9160	68.1476	-1.19	-0.10	0.00	17.51	7.290	0.02003	7.27322	1.6
33.9360	68.1476	-1.19	-0.10	0.00	17.51	7.290	0.01749	7.27323	1.9
33.9560	68.1476	-1.19	-0.10	0.00	17.51	7.290	0.01495	7.27323	2.1
33.9760	68.1476	-1.19	-0.10	0.00	17.51	7.290	0.01241	7.27324	2.7
33.9960	68.1476	-1.19	-0.10	0.00	17.51	7.290	0.00987	7.27324	2.5
34.0160	68.1476	-1.19	-0.10	0.00	17.51	7.290	0.00733	7.27324	3.0
34.0360	68.1476	-1.19	-0.10	0.00	17.51	7.290	0.00479	7.27325	4.1
34.0560	68.1476	-1.19	-0.10	0.00	17.51	7.290	0.00226	7.27325	5.8
34.0760	68.1476	-1.19	-0.10	0.00	17.51	7.290	-0.00028	7.27325	8.9
34.0960	68.1476	-1.19	-0.10	0.00	17.51	7.290	-0.00282	7.27325	14.2
34.1160	68.1476	-1.19	-0.10	0.00	17.51	7.290	-0.00536	7.27325	21.7
34.1360	68.1476	-1.19	-0.10	0.00	17.51	7.290	-0.00790	7.27324	35.4
34.1560	68.1476	-1.19	-0.10	0.00	17.51	7.290	-0.01044	7.27324	50.1
34.1760	68.1476	-1.19	-0.10	0.00	17.51	7.290	-0.01298	7.27324	76.9
34.1960	68.1476	-1.19	-0.10	0.00	17.51	7.290	-0.01552	7.27323	112.9
34.2160	68.1476	-1.19	-0.10	0.00	17.51	7.290	-0.01806	7.27323	153.5
34.2360	68.1476	-1.19	-0.10	0.00	17.51	7.290	-0.02059	7.27322	203.0
34.2560	68.1476	-1.19	-0.10	0.00	17.51	7.290	-0.02313	7.27321	265.4
34.2760	68.1476	-1.19	-0.10	0.00	17.51	7.290	-0.02567	7.27320	325.3
34.2960	68.1476	-1.19	-0.10	0.00	17.51	7.290	-0.02821	7.27319	378.0
34.3160	68.1476	-1.19	-0.10	0.00	17.51	7.290	-0.03075	7.27318	440.2
34.3360	68.1476	-1.19	-0.10	0.00	17.51	7.290	-0.03329	7.27317	576.7
34.3560	68.1476	-1.19	-0.10	0.00	17.51	7.290	-0.03583	7.27316	4633.3
34.3760	68.1476	-1.19	-0.10	0.00	17.51	7.290	-0.03836	7.27315	515.3
34.3960	68.1476	-1.19	-0.10	0.00	17.51	7.290	-0.04090	7.27313	378.2
34.4160	68.1476	-1.19	-0.10	0.00	17.51	7.290	-0.04344	7.27312	310.2
34.4360	68.1476	-1.19	-0.10	0.00	17.51	7.290	-0.04598	7.27310	260.3
34.4560	68.1476	-1.19	-0.10	0.00	17.51	7.290	-0.04852	7.27309	208.2
34.4760	68.1476	-1.19	-0.10	0.00	17.51	7.290	-0.05106	7.27307	161.8
34.4960	68.1476	-1.19	-0.10	0.00	17.51	7.290	-0.05360	7.27305	120.4
34.5160	68.1476	-1.19	-0.10	0.00	17.51	7.290	-0.05614	7.27303	89.5
34.5360	68.1476	-1.19	-0.10	0.00	17.51	7.290	-0.05868	7.27301	66.1
34.5560	68.1476	-1.19	-0.10	0.00	17.51	7.290	-0.06121	7.27299	47.8
34.5760	68.1476	-1.19	-0.10	0.00	17.51	7.290	-0.06375	7.27297	32.8
34.5960	68.1476	-1.19	-0.10	0.00	17.51	7.290	-0.06629	7.27295	22.5
34.6160	68.1476	-1.19	-0.10	0.00	17.51	7.290	-0.06883	7.27292	15.9
34.6360	68.1476	-1.19	-0.10	0.00	17.51	7.290	-0.07137	7.27290	11.3
34.6560	68.1476	-1.19	-0.10	0.00	17.51	7.290	-0.07391	7.27287	7.1
34.6760	68.1476	-1.19	-0.10	0.00	17.51	7.290	-0.07645	7.27285	5.1
34.6960	68.1476	-1.19	-0.10	0.00	17.51	7.290	-0.07899	7.27282	3.5
34.7160	68.1476	-1.19	-0.10	0.00	17.51	7.290	-0.08152	7.27279	2.7
34.7360	68.1476	-1.19	-0.10	0.00	17.51	7.290	-0.08406	7.27276	2.3
34.7560	68.1476	-1.19	-0.10	0.00	17.51	7.290	-0.08660	7.27273	2.1
34.7760	68.1476	-1.19	-0.10	0.00	17.51	7.290	-0.08914	7.27270	1.7
34.7960	68.1476	-1.19	-0.10	0.00	17.51	7.290	-0.09168	7.27267	1.6
34.8160	68.1476	-1.19	-0.10	0.00	17.51	7.290	-0.09422	7.27264	1.5
34.8360	68.1476	-1.19	-0.10	0.00	17.51	7.290	-0.09676	7.27260	1.5
34.8560	68.1476	-1.19	-0.10	0.00	17.51	7.290	-0.09930	7.27257	1.3
34.8760	68.1476	-1.19	-0.10	0.00	17.51	7.290	-0.10183	7.27254	1.4
34.8960	68.1476	-1.19	-0.10	0.00	17.51	7.290	-0.10437	7.27250	1.2
34.9160	68.1476	-1.19	-0.10	0.00	17.51	7.290	-0.10691	7.27246	1.4
34.9360	68.1476	-1.19	-0.10	0.00	17.51	7.290	-0.10945	7.27243	1.4
34.9560	68.1476	-1.19	-0.10	0.00	17.51	7.290	-0.11199	7.27239	1.6
34.9760	68.1476	-1.19	-0.10	0.00	17.51	7.290	-0.11453	7.27235	1.3
34.9960	68.1476	-1.19	-0.10	0.00	17.51	7.290	-0.11707	7.27231	1.2
35.0160	68.1476	-1.19	-0.10	0.00	17.51	7.290	-0.11960	7.27227	1.3
35.0360	68.1476	-1.19	-0.10	0.00	17.51	7.290	-0.12214	7.27222	1.3
35.0560	68.1476	-1.19	-0.10	0.00	17.51	7.290	-0.12468	7.27218	1.4
35.0760	68.1476	-1.19	-0.10	0.00	17.51	7.290	-0.12722	7.27214	1.0
35.0960	68.1476	-1.19	-0.10	0.00	17.51	7.290	-0.12976	7.27209	1.3
35.1160	68.1476	-1.19	-0.10	0.00	17.51	7.290	-0.13230	7.27205	1.5
35.1360	68.1476	-1.19	-0.10	0.00	17.51	7.290	-0.13483	7.27200	1.1
35.1560	68.1476	-1.19	-0.10	0.00	17.51	7.290	-0.13737	7.27195	1.3
35.1760	68.1476	-1.19	-0.10	0.00	17.51	7.290	-0.13991	7.27190	1.2
35.1960	68.1476	-1.19	-0.10	0.00	17.51	7.290	-0.14245	7.27185	1.2
35.2160	68.1476	-1.19	-0.10	0.00	17.51	7.290	-0.14499	7.27180	1.0
35.2360	68.1476	-1.19	-0.10	0.00	17.51	7.290	-0.14753	7.27175	1.1
35.2560	68.1476	-1.19	-0.10	0.00	17.51	7.290	-0.15006	7.27170	1.2
35.2760	68.1476	-1.19	-0.10	0.00	17.51	7.290	-0.15260	7.27165	1.2
35.2960	68.1476	-1.19	-0.10	0.00	17.51	7.290	-0.15514	7.27159	1.0
35.3160	68.1476	-1.19	-0.10	0.00	17.51	7.290	-0.15768	7.27154	1.1
35.3360	68.1476	-1.19	-0.10	0.00	17.51	7.290	-0.16022	7.27148	1.2
35.1236	67.7002	-1.18	-0.10	0.00	17.39	7.241	-0.16167	7.22356	1.4

File: 1.5deg-2.0deg-rsm-2h30mins_11354-annealed_004_w-scans_w_000-148.dat
# filename: 1.5deg-2.0deg-rsm-2h30mins_11354-annealed_004_w-scans.dat
# reflection: (004)
# type: Projection of 148 omega (rotated)  scans
# x-axis: omega
#
# Omega	2Theta	Phi  	Chi   	X    	Y    	Z    	q_para	q_perp	Intensity
# [deg]	[deg] 	[deg]	[deg] 	[mm] 	[mm] 	[mm] 	[nm-1]	[nm-1]	[counts/s]
33.5940	68.1502	-0.10	0.00	0.00	-22.75	7.333	0.06107	7.27324	1.3
33.6140	68.1502	-0.10	0.00	0.00	-22.75	7.333	0.05853	7.27326	1.2
33.6340	68.1502	-0.10	0.00	0.00	-22.75	7.333	0.05599	7.27328	1.1
33.6540	68.1502	-0.10	0.00	0.00	-22.75	7.333	0.05345	7.27330	1.1
33.6740	68.1502	-0.10	0.00	0.00	-22.75	7.333	0.05091	7.27331	1.3
33.6940	68.1502	-0.10	0.00	0.00	-22.75	7.333	0.04838	7.27333	1.3
33.7140	68.1502	-0.10	0.00	0.00	-22.75	7.333	0.04584	7.27335	1.2
33.7340	68.1502	-0.10	0.00	0.00	-22.75	7.333	0.04330	7.27336	1.4
33.7540	68.1502	-0.10	0.00	0.00	-22.75	7.333	0.04076	7.27338	1.3
33.7740	68.1502	-0.10	0.00	0.00	-22.75	7.333	0.03822	7.27339	1.4
33.7940	68.1502	-0.10	0.00	0.00	-22.75	7.333	0.03568	7.27340	1.2
33.8140	68.1502	-0.10	0.00	0.00	-22.75	7.333	0.03314	7.27342	1.4
33.8340	68.1502	-0.10	0.00	0.00	-22.75	7.333	0.03060	7.27343	1.4
33.8540	68.1502	-0.10	0.00	0.00	-22.75	7.333	0.02806	7.27344	1.3
33.8740	68.1502	-0.10	0.00	0.00	-22.75	7.333	0.02552	7.27345	1.7
33.8940	68.1502	-0.10	0.00	0.00	-22.75	7.333	0.02299	7.27346	1.4
33.9140	68.1502	-0.10	0.00	0.00	-22.75	7.333	0.02045	7.27346	1.5
33.9340	68.1502	-0.10	0.00	0.00	-22.75	7.333	0.01791	7.27347	1.6
33.9540	68.1502	-0.10	0.00	0.00	-22.75	7.333	0.01537	7.27348	1.7
33.9740	68.1502	-0.10	0.00	0.00	-22.75	7.333	0.01283	7.27348	1.8
33.9940	68.1502	-0.10	0.00	0.00	-22.75	7.333	0.01029	7.27348	2.1
34.0140	68.1502	-0.10	0.00	0.00	-22.75	7.333	0.00775	7.27349	1.9
34.0340	68.1502	-0.10	0.00	0.00	-22.75	7.333	0.00521	7.27349	1.9
34.0540	68.1502	-0.10	0.00	0.00	-22.75	7.333	0.00267	7.27349	1.9
34.0740	68.1502	-0.10	0.00	0.00	-22.75	7.333	0.00013	7.27349	2.1
34.0940	68.1502	-0.10	0.00	0.00	-22.75	7.333	-0.00240	7.27349	2.0
34.1140	68.1502	-0.10	0.00	0.00	-22.75	7.333	-0.00494	7.27349	2.2
34.1340	68.1502	-0.10	0.00	0.00	-22.75	7.333	-0.00748	7.27349	2.4
34.1540	68.1502	-0.10	0.00	0.00	-22.75	7.333	-0.01002	7.27348	2.9
34.1740	68.1502	-0.10	0.00	0.00	-22.75	7.333	-0.01256	7.27348	2.8
34.1940	68.1502	-0.10	0.00	0.00	-22.75	7.333	-0.01510	7.27348	3.8
34.2140	68.1502	-0.10	0.00	0.00	-22.75	7.333	-0.01764	7.27347	4.3
34.2340	68.1502	-0.10	0.00	0.00	-22.75	7.333	-0.02018	7.27346	6.3
34.2540	68.1502	-0.10	0.00	0.00	-22.75	7.333	-0.02271	7.27346	8.2
34.2740	68.1502	-0.10	0.00	0.00	-22.75	7.333	-0.02525	7.27345	10.8
34.2940	68.1502	-0.10	0.00	0.00	-22.75	7.333	-0.02779	7.27344	16.3
34.3140	68.1502	-0.10	0.00	0.00	-22.75	7.333	-0.03033	7.27343	23.9
34.3340	68.1502	-0.10	0.00	0.00	-22.75	7.333	-0.03287	7.27342	35.7
34.3540	68.1502	-0.10	0.00	0.00	-22.75	7.333	-0.03541	7.27341	51.1
34.3740	68.1502	-0.10	0.00	0.00	-22.75	7.333	-0.03795	7.27339	73.1
34.3940	68.1502	-0.10	0.00	0.00	-22.75	7.333	-0.04049	7.27338	103.4
34.4140	68.1502	-0.10	0.00	0.00	-22.75	7.333	-0.04303	7.27337	142.3
34.4340	68.1502	-0.10	0.00	0.00	-22.75	7.333	-0.04556	7.27335	196.7
34.4540	68.1502	-0.10	0.00	0.00	-22.75	7.333	-0.04810	7.27333	260.4
34.4740	68.1502	-0.10	0.00	0.00	-22.75	7.333	-0.05064	7.27332	330.3
34.4940	68.1502	-0.10	0.00	0.00	-22.75	7.333	-0.05318	7.27330	426.0
34.5140	68.1502	-0.10	0.00	0.00	-22.75	7.333	-0.05572	7.27328	525.2
34.5340	68.1502	-0.10	0.00	0.00	-22.75	7.333	-0.05826	7.27326	650.5
34.5540	68.1502	-0.10	0.00	0.00	-22.75	7.333	-0.06080	7.27324	782.4
34.5740	68.1502	-0.10	0.00	0.00	-22.75	7.333	-0.06334	7.27322	1119.7
34.5940	68.1502	-0.10	0.00	0.00	-22.75	7.333	-0.06588	7.27319	6125.0
34.6140	68.1502	-0.10	0.00	0.00	-22.75	7.333	-0.06841	7.27317	1093.5
34.6340	68.1502	-0.10	0.00	0.00	-22.75	7.333	-0.07095	7.27315	870.5
34.6540	68.1502	-0.10	0.00	0.00	-22.75	7.333	-0.07349	7.27312	762.0
34.6740	68.1502	-0.10	0.00	0.00	-22.75	7.333	-0.07603	7.27309	658.5
34.6940	68.1502	-0.10	0.00	0.00	-22.75	7.333	-0.07857	7.27307	543.5
34.7140	68.1502	-0.10	0.00	0.00	-22.75	7.333	-0.08111	7.27304	437.9
34.7340	68.1502	-0.10	0.00	0.00	-22.75	7.333	-0.08365	7.27301	341.0
34.7540	68.1502	-0.10	0.00	0.00	-22.75	7.333	-0.08619	7.27298	255.7
34.7740	68.1502	-0.10	0.00	0.00	-22.75	7.333	-0.08872	7.27295	186.0
34.7940	68.1502	-0.10	0.00	0.00	-22.75	7.333	-0.09126	7.27292	133.5
34.8140	68.1502	-0.10	0.00	0.00	-22.75	7.333	-0.09380	7.27289	91.8
34.8340	68.1502	-0.10	0.00	0.00	-22.75	7.333	-0.09634	7.27285	63.2
34.8540	68.1502	-0.10	0.00	0.00	-22.75	7.333	-0.09888	7.27282	43.4
34.8740	68.1502	-0.10	0.00	0.00	-22.75	7.333	-0.10142	7.27279	29.2
34.8940	68.1502	-0.10	0.00	0.00	-22.75	7.333	-0.10396	7.27275	20.2
34.9140	68.1502	-0.10	0.00	0.00	-22.75	7.333	-0.10650	7.27271	13.7
34.9340	68.1502	-0.10	0.00	0.00	-22.75	7.333	-0.10903	7.27268	10.0
34.9540	68.1502	-0.10	0.00	0.00	-22.75	7.333	-0.11157	7.27264	7.6
34.9740	68.1502	-0.10	0.00	0.00	-22.75	7.333	-0.11411	7.27260	5.3
34.9940	68.1502	-0.10	0.00	0.00	-22.75	7.333	-0.11665	7.27256	4.6
35.0140	68.1502	-0.10	0.00	0.00	-22.75	7.333	-0.11919	7.27252	4.0
35.0340	68.1502	-0.10	0.00	0.00	-22.75	7.333	-0.12173	7.27247	2.9
35.0540	68.1502	-0.10	0.00	0.00	-22.75	7.333	-0.12427	7.27243	2.9
35.0740	68.1502	-0.10	0.00	0.00	-22.75	7.333	-0.12680	7.27239	2.8
35.0940	68.1502	-0.10	0.00	0.00	-22.75	7.333	-0.12934	7.27234	2.4
35.1140	68.1502	-0.10	0.00	0.00	-22.75	7.333	-0.13188	7.27230	2.3
35.1340	68.1502	-0.10	0.00	0.00	-22.75	7.333	-0.13442	7.27225	1.8
35.1540	68.1502	-0.10	0.00	0.00	-22.75	7.333	-0.13696	7.27220	2.0
35.1740	68.1502	-0.10	0.00	0.00	-22.75	7.333	-0.13950	7.27215	1.5
35.1940	68.1502	-0.10	0.00	0.00	-22.75	7.333	-0.14204	7.27211	1.7
35.2140	68.1502	-0.10	0.00	0.00	-22.75	7.333	-0.14457	7.27206	1.7
35.2340	68.1502	-0.10	0.00	0.00	-22.75	7.333	-0.14711	7.27200	1.6
35.2540	68.1502	-0.10	0.00	0.00	-22.75	7.333	-0.14965	7.27195	1.6
35.2740	68.1502	-0.10	0.00	0.00	-22.75	7.333	-0.15219	7.27190	1.4
35.2940	68.1502	-0.10	0.00	0.00	-22.75	7.333	-0.15473	7.27185	1.6
35.3140	68.1502	-0.10	0.00	0.00	-22.75	7.333	-0.15727	7.27179	1.7
35.3340	68.1502	-0.10	0.00	0.00	-22.75	7.333	-0.15980	7.27174	1.7
35.3540	68.1502	-0.10	0.00	0.00	-22.75	7.333	-0.16234	7.27168	1.1
35.3740	68.1502	-0.10	0.00	0.00	-22.75	7.333	-0.16488	7.27162	1.2
35.3940	68.1502	-0.10	0.00	0.00	-22.75	7.333	-0.16742	7.27157	1.4
35.4140	68.1502	-0.10	0.00	0.00	-22.75	7.333	-0.16996	7.27151	1.4
35.4340	68.1502	-0.10	0.00	0.00	-22.75	7.333	-0.17250	7.27145	1.2
35.4540	68.1502	-0.10	0.00	0.00	-22.75	7.333	-0.17503	7.27139	1.4
35.4740	68.1502	-0.10	0.00	0.00	-22.75	7.333	-0.17757	7.27132	1.3
35.4940	68.1502	-0.10	0.00	0.00	-22.75	7.333	-0.18011	7.27126	1.2
35.5140	68.1502	-0.10	0.00	0.00	-22.75	7.333	-0.18265	7.27120	1.3
35.5340	68.1502	-0.10	0.00	0.00	-22.75	7.333	-0.18519	7.27113	1.3
35.5540	68.1502	-0.10	0.00	0.00	-22.75	7.333	-0.18772	7.27107	0.9
35.5740	68.1502	-0.10	0.00	0.00	-22.75	7.333	-0.19026	7.27100	1.3
35.3600	67.7027	-0.10	0.00	0.00	-22.60	7.284	-0.19151	7.22307	1.2

File: 1.5deg-2.0deg-rsm-2h30mins_11354-as-grown_004_w-scans_w_000-148.dat
# filename: 1.5deg-2.0deg-rsm-2h30mins_11354-as-grown_004_w-scans.dat
# reflection: (004)
# type: Projection of 148 omega (rotated)  scans
# x-axis: omega
#
# Omega	2Theta	Phi  	Chi   	X    	Y    	Z    	q_para	q_perp	Intensity
# [deg]	[deg] 	[deg]	[deg] 	[mm] 	[mm] 	[mm] 	[nm-1]	[nm-1]	[counts/s]
32.7054	68.1498	1.74	0.02	10.00	20.00	7.278	0.17383	7.27138	1.0
32.7254	68.1498	1.74	0.02	10.00	20.00	7.278	0.17129	7.27144	1.2
32.7454	68.1498	1.74	0.02	10.00	20.00	7.278	0.16876	7.27150	1.2
32.7654	68.1498	1.74	0.02	10.00	20.00	7.278	0.16622	7.27156	1.2
32.7854	68.1498	1.74	0.02	10.00	20.00	7.278	0.16368	7.27161	1.1
32.8054	68.1498	1.74	0.02	10.00	20.00	7.278	0.16114	7.27167	1.3
32.8254	68.1498	1.74	0.02	10.00	20.00	7.278	0.15860	7.27173	1.2
32.8454	68.1498	1.74	0.02	10.00	20.00	7.278	0.15606	7.27178	1.2
32.8654	68.1498	1.74	0.02	10.00	20.00	7.278	0.15353	7.27183	1.5
32.8854	68.1498	1.74	0.02	10.00	20.00	7.278	0.15099	7.27189	1.0
32.9054	68.1498	1.74	0.02	10.00	20.00	7.278	0.14845	7.27194	1.4
32.9254	68.1498	1.74	0.02	10.00	20.00	7.278	0.14591	7.27199	1.4
32.9454	68.1498	1.74	0.02	10.00	20.00	7.278	0.14337	7.27204	1.1
32.9654	68.1498	1.74	0.02	10.00	20.00	7.278	0.14083	7.27209	1.2
32.9854	68.1498	1.74	0.02	10.00	20.00	7.278	0.13830	7.27214	1.4
33.0054	68.1498	1.74	0.02	10.00	20.00	7.278	0.13576	7.27219	1.4
33.0254	68.1498	1.74	0.02	10.00	20.00	7.278	0.13322	7.27223	1.5
33.0454	68.1498	1.74	0.02	10.00	20.00	7.278	0.13068	7.27228	1.4
33.0654	68.1498	1.74	0.02	10.00	20.00	7.278	0.12814	7.27233	1.5
33.0854	68.1498	1.74	0.02	10.00	20.00	7.278	0.12560	7.27237	1.5
33.1054	68.1498	1.74	0.02	10.00	20.00	7.278	0.12306	7.27241	1.8
33.1254	68.1498	1.74	0.02	10.00	20.00	7.278	0.12053	7.27246	2.1
33.1454	68.1498	1.74	0.02	10.00	20.00	7.278	0.11799	7.27250	1.9
33.1654	68.1498	1.74	0.02	10.00	20.00	7.278	0.11545	7.27254	1.7
33.1854	68.1498	1.74	0.02	10.00	20.00	7.278	0.11291	7.27258	1.7
33.2054	68.1498	1.74	0.02	10.00	20.00	7.278	0.11037	7.27262	1.9
33.2254	68.1498	1.74	0.02	10.00	20.00	7.278	0.10783	7.27266	2.4
33.2454	68.1498	1.74	0.02	10.00	20.00	7.278	0.10529	7.27269	2.0
33.2654	68.1498	1.74	0.02	10.00	20.00	7.278	0.10275	7.27273	2.3
33.2854	68.1498	1.74	0.02	10.00	20.00	7.278	0.10022	7.27276	2.4
33.3054	68.1498	1.74	0.02	10.00	20.00	7.278	0.09768	7.27280	2.6
33.3254	68.1498	1.74	0.02	10.00	20.00	7.278	0.09514	7.27283	2.9
33.3454	68.1498	1.74	0.02	10.00	20.00	7.278	0.09260	7.27286	4.0
33.3654	68.1498	1.74	0.02	10.00	20.00	7.278	0.09006	7.27290	5.5
33.3854	68.1498	1.74	0.02	10.00	20.00	7.278	0.08752	7.27293	6.4
33.4054	68.1498	1.74	0.02	10.00	20.00	7.278	0.08498	7.27296	9.1
33.4254	68.1498	1.74	0.02	10.00	20.00	7.278	0.08245	7.27299	12.4
33.4454	68.1498	1.74	0.02	10.00	20.00	7.278	0.07991	7.27302	18.3
33.4654	68.1498	1.74	0.02	10.00	20.00	7.278	0.07737	7.27304	27.5
33.4854	68.1498	1.74	0.02	10.00	20.00	7.278	0.07483	7.27307	40.5
33.5054	68.1498	1.74	0.02	10.00	20.00	7.278	0.07229	7.27310	59.9
33.5254	68.1498	1.74	0.02	10.00	20.00	7.278	0.06975	7.27312	83.9
33.5454	68.1498	1.74	0.02	10.00	20.00	7.278	0.06721	7.27314	119.8
33.5654	68.1498	1.74	0.02	10.00	20.00	7.278	0.06467	7.27317	169.0
33.5854	68.1498	1.74	0.02	10.00	20.00	7.278	0.06214	7.27319	241.2
33.6054	68.1498	1.74	0.02	10.00	20.00	7.278	0.05960	7.27321	313.2
33.6254	68.1498	1.74	0.02	10.00	20.00	7.278	0.05706	7.27323	403.1
33.6454	68.1498	1.74	0.02	10.00	20.00	7.278	0.05452	7.27325	509.7
33.6654	68.1498	1.74	0.02	10.00	20.00	7.278	0.05198	7.27327	633.3
33.6854	68.1498	1.74	0.02	10.00	20.00	7.278	0.04944	7.27329	784.5
33.7054	68.1498	1.74	0.02	10.00	20.00	7.278	0.04690	7.27330	1417.6
33.7254	68.1498	1.74	0.02	10.00	20.00	7.278	0.04436	7.27332	2109.7
33.7454	68.1498	1.74	0.02	10.00	20.00	7.278	0.04182	7.27333	988.3
33.7654	68.1498	1.74	0.02	10.00	20.00	7.278	0.03929	7.27335	847.2
33.7854	68.1498	1.74	0.02	10.00	20.00	7.278	0.03675	7.27336	754.9
33.8054	68.1498	1.74	0.02	10.00	20.00	7.278	0.03421	7.27337	651.4
33.8254	68.1498	1.74	0.02	10.00	20.00	7.278	0.03167	7.27339	543.6
33.8454	68.1498	1.74	0.02	10.00	20.00	7.278	0.02913	7.27340	432.8
33.8654	68.1498	1.74	0.02	10.00	20.00	7.278	0.02659	7.27341	343.3
33.8854	68.1498	1.74	0.02	10.00	20.00	7.278	0.02405	7.27341	267.8
33.9054	68.1498	1.74	0.02	10.00	20.00	7.278	0.02151	7.27342	199.9
33.9254	68.1498	1.74	0.02	10.00	20.00	7.278	0.01897	7.27343	146.3
33.9454	68.1498	1.74	0.02	10.00	20.00	7.278	0.01644	7.27344	106.3
33.9654	68.1498	1.74	0.02	10.00	20.00	7.278	0.01390	7.27344	76.6
33.9854	68.1498	1.74	0.02	10.00	20.00	7.278	0.01136	7.27345	50.6
34.0054	68.1498	1.74	0.02	10.00	20.00	7.278	0.00882	7.27345	31.4
34.0254	68.1498	1.74	0.02	10.00	20.00	7.278	0.00628	7.27345	20.2
34.0454	68.1498	1.74	0.02	10.00	20.00	7.278	0.00374	7.27345	13.8
34.0654	68.1498	1.74	0.02	10.00	20.00	7.278	0.00120	7.27345	9.6
34.0854	68.1498	1.74	0.02	10.00	20.00	7.278	-0.00134	7.27345	7.0
34.1054	68.1498	1.74	0.02	10.00	20.00	7.278	-0.00388	7.27345	5.2
34.1254	68.1498	1.74	0.02	10.00	20.00	7.278	-0.00641	7.27345	4.0
34.1454	68.1498	1.74	0.02	10.00	20.00	7.278	-0.00895	7.27345	3.7
34.1654	68.1498	1.74	0.02	10.00	20.00	7.278	-0.01149	7.27344	2.9
34.1854	68.1498	1.74	0.02	10.00	20.00	7.278	-0.01403	7.27344	2.9
34.2054	68.1498	1.74	0.02	10.00	20.00	7.278	-0.01657	7.27344	2.3
34.2254	68.1498	1.74	0.02	10.00	20.00	7.278	-0.01911	7.27343	2.4
34.2454	68.1498	1.74	0.02	10.00	20.00	7.278	-0.02165	7.27342	2.1
34.2654	68.1498	1.74	0.02	10.00	20.00	7.278	-0.02419	7.27341	2.7
34.2854	68.1498	1.74	0.02	10.00	20.00	7.278	-0.02673	7.27341	2.2
34.3054	68.1498	1.74	0.02	10.00	20.00	7.278	-0.02927	7.27340	1.9
34.3254	68.1498	1.74	0.02	10.00	20.00	7.278	-0.03180	7.27339	1.9
34.3454	68.1498	1.74	0.02	10.00	20.00	7.278	-0.03434	7.27337	1.9
34.3654	68.1498	1.74	0.02	10.00	20.00	7.278	-0.03688	7.27336	1.4
34.3854	68.1498	1.74	0.02	10.00	20.00	7.278	-0.03942	7.27335	1.4
34.4054	68.1498	1.74	0.02	10.00	20.00	7.278	-0.04196	7.27333	1.5
34.4254	68.1498	1.74	0.02	10.00	20.00	7.278	-0.04450	7.27332	1.4
34.4454	68.1498	1.74	0.02	10.00	20.00	7.278	-0.04704	7.27330	1.2
34.4654	68.1498	1.74	0.02	10.00	20.00	7.278	-0.04958	7.27329	1.4
34.4854	68.1498	1.74	0.02	10.00	20.00	7.278	-0.05211	7.27327	1.4
34.5054	68.1498	1.74	0.02	10.00	20.00	7.278	-0.05465	7.27325	1.7
34.5254	68.1498	1.74	0.02	10.00	20.00	7.278	-0.05719	7.27323	1.8
34.5454	68.1498	1.74	0.02	10.00	20.00	7.278	-0.05973	7.27321	1.2
34.5654	68.1498	1.74	0.02	10.00	20.00	7.278	-0.06227	7.27319	1.4
34.5854	68.1498	1.74	0.02	10.00	20.00	7.278	-0.06481	7.27317	1.4
34.6054	68.1498	1.74	0.02	10.00	20.00	7.278	-0.06735	7.27314	1.2
34.6254	68.1498	1.74	0.02	10.00	20.00	7.278	-0.06989	7.27312	1.2
34.6454	68.1498	1.74	0.02	10.00	20.00	7.278	-0.07243	7.27309	1.1
34.6654	68.1498	1.74	0.02	10.00	20.00	7.278	-0.07496	7.27307	1.3
34.6854	68.1498	1.74	0.02	10.00	20.00	7.278	-0.07750	7.27304	1.2
34.4773	67.7024	1.73	0.02	9.93	19.87	7.229	-0.07950	7.22514	1.3